time,ax,ay,az,gx,gy,gz
1595879405,0.3002,0.9202,0.3066,0.5488,0.3049,-0.4268
1595879405,0.2991,0.9295,0.3086,0.7317,0.5488,-0.5488
1595879405,0.3007,0.9295,0.3057,0.9756,0.7927,-0.7317
1595879405,0.3002,0.9287,0.3057,0.9756,0.9756,-0.7927
1595879405,0.2991,0.9291,0.3086,1.0366,0.9146,-0.9146
1595879405,0.2994,0.9279,0.3079,1.0366,0.6707,-0.9756
1595879405,0.3015,0.9278,0.3093,0.9756,0.4268,-0.7927
1595879405,0.3001,0.9299,0.3106,0.9756,0.2439,-0.8537
1595879405,0.2994,0.9295,0.3094,0.9756,0.1220,-0.8537
1595879405,0.3027,0.9298,0.3071,0.9146,0.0000,-0.8537
1595879405,0.3039,0.9307,0.3088,1.0366,-0.0610,-0.8537
1595879405,0.3057,0.9337,0.3111,0.9756,-0.1220,-0.7927
1595879405,0.3022,0.9299,0.3090,0.8537,0.0610,-0.8537
1595879405,0.3003,0.9307,0.3097,0.8537,0.3049,-0.8537
1595879405,0.3021,0.9331,0.3099,0.8537,0.3659,-0.9146
1595879405,0.3029,0.9296,0.3063,0.9146,0.3049,-0.9756
1595879405,0.3027,0.9279,0.3078,1.0366,0.2439,-0.9146
1595879405,0.3027,0.9273,0.3080,1.0976,0.3659,-0.8537
1595879405,0.3033,0.9276,0.3109,1.0976,0.4268,-0.8537
1595879405,0.3051,0.9297,0.3110,1.1585,0.6098,-0.7927
1595879405,0.3062,0.9318,0.3121,1.2195,0.7927,-0.7317
1595879405,0.3056,0.9328,0.3113,1.2195,0.9146,-0.7927
1595879405,0.3047,0.9337,0.3102,1.1585,1.1585,-0.7927
1595879405,0.3024,0.9340,0.3090,1.0976,1.1585,-0.8537
1595879405,0.3020,0.9363,0.3112,1.1585,1.2195,-0.7927
1595879405,0.3019,0.9319,0.3112,0.9756,1.1585,-0.6098
1595879405,0.3027,0.9299,0.3130,0.9756,1.0366,-0.4878
1595879405,0.3022,0.9310,0.3124,0.9756,0.8537,-0.4878
1595879405,0.3016,0.9298,0.3110,0.9146,0.7317,-0.2439
1595879405,0.3024,0.9299,0.3112,0.9146,0.6707,-0.1829
1595879405,0.3011,0.9305,0.3167,1.0366,0.8537,0.0000
1595879405,0.2983,0.9296,0.3151,0.9146,1.0366,0.0000
1595879405,0.2988,0.9315,0.3146,0.8537,1.1585,0.0610
1595879405,0.2967,0.9293,0.3129,0.7317,1.2805,0.0000
1595879405,0.2974,0.9276,0.3127,0.6098,1.1585,-0.1220
1595879405,0.2964,0.9308,0.3141,0.5488,0.9756,-0.1829
1595879405,0.2968,0.9305,0.3120,0.5488,0.8537,-0.3049
1595879405,0.2969,0.9302,0.3118,0.4268,0.9146,-0.3049
1595879405,0.2975,0.9311,0.3113,0.3659,1.0366,-0.3659
1595879405,0.2994,0.9315,0.3104,0.4268,0.9146,-0.3659
1595879405,0.3001,0.9316,0.3101,0.3659,0.9756,-0.3049
1595879405,0.3035,0.9309,0.3103,0.3659,1.2195,-0.3049
1595879405,0.3021,0.9313,0.3140,0.4878,1.4634,-0.2439
1595879405,0.2990,0.9325,0.3148,0.6098,2.0122,-0.3659
1595879405,0.2969,0.9310,0.3124,0.7317,2.4390,-0.4268
1595879405,0.2963,0.9296,0.3074,0.7927,2.3780,-0.3049
1595879405,0.2941,0.9288,0.3053,0.6098,2.0732,-0.1829
1595879405,0.2947,0.9337,0.3049,0.4878,1.7073,-0.1829
1595879405,0.2977,0.9377,0.3062,0.3049,1.2195,-0.2439
1595879405,0.2990,0.9347,0.3090,0.1220,0.9756,-0.3049
1595879405,0.3013,0.9326,0.3121,0.0610,0.9146,-0.4878
1595879405,0.3039,0.9318,0.3163,0.3049,1.0366,-0.5488
1595879405,0.3027,0.9294,0.3129,0.4878,1.4024,-0.6098
1595879405,0.3025,0.9275,0.3117,0.6707,1.8902,-0.4268
1595879405,0.3002,0.9318,0.3105,0.7927,2.2561,-0.4268
1595879405,0.2984,0.9320,0.3076,0.8537,2.3780,-0.3659
1595879405,0.2967,0.9315,0.3077,0.7927,2.3171,-0.3659
1595879405,0.2947,0.9315,0.3123,0.6098,1.8293,-0.3049
1595879405,0.2934,0.9316,0.3112,0.3659,1.0976,-0.3049
1595879405,0.2982,0.9318,0.3122,0.0000,0.4878,-0.1220
1595879405,0.3003,0.9307,0.3131,-0.0610,0.0610,0.0610
1595879405,0.3011,0.9272,0.3117,-0.0610,-0.0610,0.0610
1595879405,0.2974,0.9268,0.3121,-0.1829,0.0000,0.0610
1595879405,0.2945,0.9305,0.3139,-0.1220,0.3659,0.1220
1595879405,0.2968,0.9297,0.3135,-0.0610,0.7317,0.1220
1595879405,0.2957,0.9289,0.3139,-0.1220,0.7927,0.0610
1595879405,0.2950,0.9288,0.3090,-0.1220,0.8537,0.0610
1595879405,0.2935,0.9270,0.3060,-0.0610,0.9146,-0.1220
1595879405,0.2961,0.9294,0.3069,0.0000,0.8537,-0.2439
1595879405,0.2987,0.9306,0.3071,0.0000,0.6707,-0.3049
1595879405,0.2985,0.9312,0.3087,-0.1220,0.6707,-0.4268
1595879405,0.3010,0.9327,0.3132,-0.0610,0.7927,-0.3659
1595879405,0.2998,0.9317,0.3112,0.0610,0.9146,-0.3659
1595879405,0.3005,0.9292,0.3102,0.1220,1.2195,-0.4878
1595879405,0.3000,0.9299,0.3094,0.1220,1.4634,-0.4268
1595879405,0.3000,0.9279,0.3110,0.3659,1.5854,-0.3659
1595879405,0.3007,0.9291,0.3120,0.3659,1.7073,-0.3659
1595879405,0.3019,0.9286,0.3109,0.4878,1.8293,-0.2439
1595879405,0.2983,0.9308,0.3104,0.6098,1.7683,-0.1829
1595879405,0.2977,0.9279,0.3106,0.4878,1.4634,-0.1829
1595879405,0.2982,0.9283,0.3097,0.4268,1.0366,-0.1220
1595879405,0.3000,0.9283,0.3116,0.4268,0.7927,0.0000
1595879405,0.3007,0.9286,0.3123,0.1829,0.3049,0.0610
1595879405,0.3017,0.9307,0.3124,0.1829,0.0610,0.0610
1595879405,0.3016,0.9300,0.3141,0.3049,0.1220,0.1829
1595879405,0.3026,0.9295,0.3151,0.3049,0.4268,0.1829
1595879405,0.3016,0.9273,0.3147,0.2439,0.4878,0.2439
1595879405,0.3007,0.9297,0.3156,0.3049,0.6098,0.2439
1595879405,0.2979,0.9297,0.3177,0.3659,0.6098,0.3049
1595879405,0.2964,0.9277,0.3166,0.3659,0.6098,0.1829
1595879405,0.2974,0.9299,0.3166,0.3049,0.5488,0.1220
1595879405,0.3002,0.9302,0.3156,0.2439,0.3659,0.0610
1595879406,0.2985,0.9305,0.3158,0.2439,0.1829,0.1829
1595879406,0.2994,0.9311,0.3174,0.1829,0.0610,0.1220
1595879406,0.3006,0.9320,0.3145,0.1220,0.0610,0.1220
1595879406,0.3002,0.9279,0.3161,0.0000,0.1220,0.1220
1595879406,0.3000,0.9267,0.3195,0.0000,0.1220,0.1829
1595879406,0.2971,0.9265,0.3155,0.0000,0.1829,0.1829
1595879406,0.2968,0.9280,0.3166,-0.0610,0.0610,0.1829
1595879406,0.2967,0.9250,0.3168,0.0000,0.0610,0.1829
1595879406,0.2973,0.9244,0.3166,0.0000,-0.0610,0.2439
1595879406,0.2983,0.9259,0.3167,-0.0610,-0.1829,0.2439
1595879406,0.2974,0.9290,0.3151,-0.1220,-0.1220,0.2439
1595879406,0.2980,0.9307,0.3175,-0.1220,0.0000,0.0000
1595879406,0.3003,0.9328,0.3167,-0.0610,-0.0610,-0.0610
1595879406,0.3001,0.9310,0.3148,-0.1829,-0.2439,-0.1829
1595879406,0.2997,0.9301,0.3146,-0.2439,-0.2439,-0.3049
1595879406,0.3002,0.9308,0.3151,-0.1829,-0.1829,-0.3049
1595879406,0.2980,0.9258,0.3133,-0.1829,-0.1220,-0.3659
1595879406,0.2950,0.9250,0.3115,0.0000,-0.2439,-0.3049
1595879406,0.2953,0.9241,0.3085,0.0000,-0.4878,-0.1220
1595879406,0.2944,0.9196,0.3074,0.0000,-0.7317,0.0000
1595879406,0.2921,0.9202,0.3084,0.0000,-0.7927,0.0610
1595879406,0.2935,0.9314,0.3118,0.0610,-0.9146,-0.0610
1595879406,0.2932,0.9474,0.3123,0.1220,-0.9146,-0.3659
1595879406,0.2939,0.9576,0.3106,0.1220,-0.9756,-0.7317
1595879406,0.2864,0.9481,0.3074,0.2439,-1.5244,-0.9756
1595879406,0.2759,0.9363,0.3017,0.3659,-2.1341,-1.2195
1595879406,0.2695,0.9365,0.2991,0.3659,-3.0488,-1.4634
1595879406,0.2719,0.9569,0.3031,0.1220,-4.1463,-2.0122
1595879406,0.2520,0.9688,0.3005,-0.1829,-5.4878,-2.6829
1595879406,0.2205,0.9677,0.2936,-0.2439,-7.1951,-3.2317
1595879406,0.1876,0.9529,0.2817,0.5488,-10.1220,-4.3293
1595879406,0.1555,0.9409,0.2908,1.4024,-14.5732,-6.0976
1595879406,0.1610,0.9581,0.3203,2.3780,-20.9756,-8.5976
1595879406,0.1663,0.9732,0.3375,0.0000,-27.0122,-11.6463
1595879406,0.1550,0.9761,0.3401,-1.7073,-30.4268,-14.2073
1595879406,0.1352,0.9733,0.3391,-1.1585,-32.6220,-16.0366
1595879406,0.1106,0.9812,0.3547,-1.6463,-34.7561,-17.7439
1595879406,0.0787,0.9777,0.3838,-3.7805,-38.1098,-20.0610
1595879406,0.0435,0.9538,0.3909,-6.8293,-42.1341,-22.9878
1595879406,-0.0099,0.9540,0.3997,-8.3537,-48.3537,-26.0976
1595879406,-0.0659,0.9663,0.4205,-7.6829,-59.3902,-29.8780
1595879406,-0.0753,0.9622,0.4356,-8.7805,-75.7317,-34.0854
1595879406,-0.0286,0.9819,0.4714,-11.8902,-96.7073,-38.0488
1595879406,0.0326,1.0027,0.4985,-15.3659,-118.1707,-41.8902
1595879406,0.0579,1.0146,0.5328,-20.1220,-134.2683,-45.7317
1595879406,0.0652,1.0222,0.5529,-24.5122,-144.0854,-49.8781
1595879406,0.0820,1.0371,0.5812,-28.6585,-150.9146,-53.8415
1595879406,0.0909,1.0257,0.6101,-33.4146,-157.5610,-56.8293
1595879406,0.1017,1.0006,0.6270,-39.3902,-163.4756,-58.6585
1595879406,0.1279,1.0101,0.6588,-44.3293,-169.6342,-58.9634
1595879406,0.1531,1.0300,0.7038,-48.6585,-174.1463,-58.4756
1595879406,0.1663,1.0323,0.7460,-54.2073,-176.2805,-58.7195
1595879406,0.2073,1.0388,0.7684,-59.7561,-177.7439,-59.3902
1595879406,0.2619,1.0478,0.8047,-66.1585,-178.7195,-58.2927
1595879406,0.3193,1.0648,0.8366,-72.3781,-179.5122,-56.4024
1595879406,0.3760,1.0955,0.8770,-77.6220,-180.9146,-55.9756
1595879406,0.4055,1.1135,0.9061,-84.0854,-179.5732,-54.1463
1595879406,0.4221,1.1103,0.9070,-92.6220,-174.8171,-50.8537
1595879406,0.4354,1.0990,0.9029,-102.3781,-168.2317,-47.3171
1595879406,0.4246,1.1077,0.8689,-110.7927,-164.2683,-44.4512
1595879406,0.4054,1.1232,0.8232,-117.5000,-166.6463,-40.9756
1595879406,0.4097,1.1393,0.7643,-126.6463,-176.0366,-36.4024
1595879406,0.4333,1.1415,0.6953,-136.9512,-189.5732,-31.5854
1595879406,0.4629,1.1412,0.6346,-145.1829,-204.5732,-27.6220
1595879406,0.4905,1.1425,0.5706,-151.4024,-218.7805,-23.0488
1595879406,0.5187,1.1424,0.5122,-156.5244,-233.1707,-16.1585
1595879406,0.5617,1.1260,0.4578,-160.5488,-248.2927,-8.2317
1595879406,0.5966,1.1052,0.3894,-163.9024,-261.9512,0.1220
1595879406,0.6551,1.0922,0.3085,-164.2683,-275.9756,10.2439
1595879406,0.7493,1.0670,0.2552,-163.8415,-288.7195,22.1341
1595879406,0.8137,1.0411,0.2230,-163.1098,-293.7195,35.0000
1595879406,0.8273,1.0263,0.1699,-159.0244,-291.4024,47.1951
1595879406,0.8358,0.9976,0.1215,-152.9878,-286.0976,57.6829
1595879406,0.8282,0.9492,0.0703,-147.1342,-279.5732,67.5610
1595879406,0.8456,0.9019,0.0667,-140.3659,-270.9146,76.9512
1595879406,0.8588,0.8841,0.1238,-131.2195,-258.2317,84.3293
1595879406,0.8143,0.8850,0.1406,-121.1585,-244.0244,90.7927
1595879406,0.7547,0.9043,0.0927,-113.5976,-231.8902,99.6341
1595879406,0.7467,0.9039,0.0399,-106.2195,-223.5366,106.4024
1595879406,0.7584,0.8631,-0.0049,-98.1707,-220.7927,110.0000
1595879406,0.7809,0.8110,-0.0869,-88.3537,-220.4268,113.5976
1595879406,0.7968,0.7612,-0.1376,-79.0244,-214.5122,115.9756
1595879406,0.7841,0.7283,-0.1471,-67.9268,-200.9756,116.0366
1595879406,0.7748,0.7133,-0.1159,-54.5122,-183.4146,113.4756
1595879406,0.7741,0.7137,-0.0828,-42.1951,-165.7927,110.4878
1595879406,0.7401,0.7281,-0.0800,-31.7073,-146.1585,109.0854
1595879406,0.6980,0.7236,-0.1080,-22.5000,-130.5488,108.9634
1595879406,0.6757,0.6936,-0.1725,-15.9756,-122.5000,109.2683
1595879406,0.7014,0.6512,-0.2591,-11.1585,-120.8537,109.6951
1595879406,0.7567,0.5960,-0.3365,-5.4268,-120.0000,109.2073
1595879406,0.7994,0.5537,-0.3228,2.9268,-114.7561,107.3171
1595879406,0.8447,0.5502,-0.2710,13.5976,-105.8537,104.4512
1595879406,0.8889,0.5568,-0.2210,23.1707,-94.6341,101.4024
1595879406,0.8818,0.5671,-0.2034,30.0000,-82.0122,98.4756
1595879406,0.8358,0.5569,-0.2174,35.4268,-68.2317,96.4024
1595879406,0.8080,0.5470,-0.2657,39.1463,-54.8781,95.1220
1595879406,0.8186,0.5443,-0.3536,42.4390,-44.8780,93.6585
1595879406,0.8495,0.5320,-0.4211,45.9146,-40.3049,90.0000
1595879406,0.8788,0.5122,-0.4495,51.4024,-38.5976,86.8902
1595879407,0.8954,0.5051,-0.4456,58.8415,-34.4512,83.7805
1595879407,0.8835,0.5101,-0.4370,67.3171,-28.4146,80.2439
1595879407,0.8626,0.5001,-0.4351,74.5732,-22.3171,77.4390
1595879407,0.8464,0.4968,-0.4445,79.5732,-16.0366,74.9390
1595879407,0.8425,0.4910,-0.4692,84.9390,-11.3415,72.3171
1595879407,0.8503,0.4739,-0.4875,89.6951,-9.3293,70.2439
1595879407,0.8582,0.4590,-0.5054,94.5122,-10.3049,68.1098
1595879407,0.8746,0.4703,-0.5231,99.0854,-11.8293,65.7927
1595879407,0.8932,0.5120,-0.5298,104.0854,-13.9634,63.6585
1595879407,0.9042,0.5355,-0.5446,110.2439,-17.0732,61.9512
1595879407,0.8926,0.5304,-0.5511,116.2195,-21.1585,60.9146
1595879407,0.8708,0.5267,-0.5590,122.8049,-24.4512,60.6707
1595879407,0.8560,0.5273,-0.5745,129.5732,-26.2805,60.1829
1595879407,0.8727,0.5288,-0.5794,135.2439,-28.3537,59.5122
1595879407,0.8925,0.5463,-0.5810,140.5488,-29.0244,57.6829
1595879407,0.8969,0.5676,-0.5885,146.2195,-24.1463,55.1829
1595879407,0.9025,0.5826,-0.5782,151.4024,-16.5244,51.8293
1595879407,0.9044,0.6077,-0.5510,157.4390,-8.8415,48.5976
1595879407,0.9128,0.6160,-0.5175,164.2073,-1.4634,46.4634
1595879407,0.9070,0.6176,-0.4996,170.4268,5.1220,44.4512
1595879407,0.8744,0.6223,-0.5122,175.6707,9.3293,43.5366
1595879407,0.8449,0.6193,-0.5520,179.6951,10.6707,43.4756
1595879407,0.8497,0.6110,-0.5865,182.5000,11.0976,43.1707
1595879407,0.8792,0.6116,-0.5547,187.1342,11.6463,41.5244
1595879407,0.9183,0.6290,-0.4626,193.9025,11.8293,39.8171
1595879407,0.9208,0.6415,-0.3953,200.4268,12.5000,38.5976
1595879407,0.9124,0.6288,-0.3947,204.6951,11.6463,38.7195
1595879407,0.8955,0.6312,-0.4249,206.1585,8.2927,39.8780
1595879407,0.8653,0.6525,-0.4539,208.1098,4.2683,40.4878
1595879407,0.8818,0.6685,-0.4764,212.2561,2.1951,39.9390
1595879407,0.9349,0.6514,-0.4439,216.0976,2.8659,37.2561
1595879407,0.9827,0.6368,-0.3164,222.0122,7.9268,33.9634
1595879407,0.9499,0.6304,-0.2258,230.8537,16.5854,31.8902
1595879407,0.8931,0.6125,-0.1896,235.0610,19.0854,32.9268
1595879407,0.8663,0.6254,-0.1861,234.0854,10.9146,36.0366
1595879407,0.8546,0.6515,-0.2337,231.8293,-5.0000,39.2073
1595879407,0.8729,0.6618,-0.2968,228.3537,-23.7195,41.9512
1595879407,0.9148,0.6518,-0.3044,226.3415,-40.3049,42.6829
1595879407,0.9380,0.6498,-0.2889,228.6585,-49.9390,41.4634
1595879407,0.9791,0.6059,-0.2589,233.7805,-48.1707,38.1707
1595879407,1.0616,0.5523,-0.1568,240.0000,-33.4756,32.8049
1595879407,1.1089,0.5737,-0.0359,251.5854,-6.7073,27.0732
1595879407,1.0714,0.5991,-0.0123,263.2927,24.9390,23.5976
1595879407,1.0141,0.6169,-0.1091,267.0122,50.3049,24.7561
1595879407,0.9799,0.6396,-0.2658,267.0122,64.5122,28.9634
1595879407,0.8890,0.6979,-0.4164,269.4512,69.6341,35.0610
1595879407,0.8819,0.7570,-0.4941,279.4512,66.1585,42.2561
1595879407,0.9951,0.7754,-0.4323,294.6342,58.2317,44.9390
1595879407,1.1494,0.7997,-0.1898,315.4268,54.9390,46.0976
1595879407,1.2226,0.8637,0.0042,340.4878,55.2439,50.7927
1595879407,1.1939,0.8838,0.0331,354.3903,45.6707,63.7805
1595879407,1.1280,0.8833,0.0475,355.0000,24.2683,80.9756
1595879407,1.1359,0.8541,0.0637,355.0610,-4.5732,96.2195
1595879407,0.9630,1.0765,0.7310,355.4268,-33.0488,106.9512
1595879407,-1.1248,1.9999,1.9999,347.3171,-67.5000,114.8781
1595879407,0.7027,1.6703,-0.0728,150.8537,-342.0732,61.7073
1595879407,1.9999,-1.2380,-1.9999,-25.8537,-412.5610,-52.3171
1595879407,1.6653,-1.0880,0.8170,-148.9634,-199.5122,211.7073
1595879407,0.4568,-0.2194,1.1049,212.6220,-11.2195,92.1341
1595879407,1.1094,-0.7182,0.3439,114.0244,-16.7683,59.7561
1595879407,1.5685,0.5950,0.5842,15.4268,7.8659,56.9512
1595879407,0.3308,1.1633,0.2682,123.3537,103.8415,65.7317
1595879407,-0.4035,0.3931,-0.3237,115.9756,195.0610,18.4146
1595879407,0.2772,-0.4550,-0.4076,64.4512,132.7439,-36.2195
1595879407,0.8663,-0.8162,-0.1886,33.2317,8.9024,-15.3659
1595879407,1.0374,-0.7117,-0.0616,31.7073,-60.7317,31.6463
1595879407,0.5615,-0.5693,-0.0544,46.1585,-43.2927,51.2805
1595879407,0.0914,-0.3131,-0.0544,37.6829,-5.4878,57.3171
1595879407,0.4670,-0.1234,0.0420,34.3902,-28.5366,46.1585
1595879407,1.2000,-0.2298,0.1165,30.3049,-111.1585,29.3902
1595879407,1.4611,-0.4203,0.0457,20.3659,-165.6707,27.0122
1595879407,1.3364,-0.4626,0.0071,11.1585,-154.2683,34.1463
1595879407,1.2786,-0.3950,0.0596,12.3780,-119.8781,33.1098
1595879407,1.2711,-0.3655,0.0807,16.2195,-87.4390,25.7927
1595879407,1.1914,-0.3997,0.0630,15.0610,-54.7561,20.3049
1595879407,1.1451,-0.4266,0.0451,12.5000,-26.7073,15.0610
1595879407,1.1294,-0.4305,0.0194,10.9146,-7.8049,7.9268
1595879407,1.0884,-0.4138,-0.0237,9.8171,3.5976,0.7317
1595879407,1.0865,-0.3860,-0.0718,9.5732,6.4634,-3.2927
1595879407,1.1100,-0.3600,-0.1043,9.6341,2.5000,-4.8171
1595879407,1.0809,-0.3426,-0.1277,9.6341,-1.8293,-4.6951
1595879407,1.0411,-0.3470,-0.1238,9.5732,-3.4146,-3.4756
1595879407,1.0566,-0.3604,-0.1015,8.5976,-4.7561,-2.1951
1595879407,1.0778,-0.3599,-0.0877,7.3780,-5.1220,-0.4268
1595879407,1.0428,-0.3330,-0.0865,7.0732,-0.8537,2.1951
1595879407,1.0088,-0.3195,-0.0916,7.2561,6.7073,4.4512
1595879407,0.9936,-0.3256,-0.0997,7.1341,13.4146,5.1829
1595879407,0.9857,-0.3245,-0.1148,7.5000,14.6341,6.5244
1595879407,0.9977,-0.3085,-0.1409,9.0244,10.2439,9.3902
1595879407,0.9932,-0.2845,-0.1703,10.8537,4.0854,12.2561
1595879407,0.9720,-0.2531,-0.1833,12.8659,-2.1951,14.8171
1595879407,0.9334,-0.2075,-0.1564,15.0000,-7.9268,17.0732
1595879407,0.9127,-0.1714,-0.1539,17.6220,-11.8293,18.2317
1595879407,0.9288,-0.1471,-0.1639,19.2683,-11.1585,17.8049
1595879407,0.8954,-0.1252,-0.1706,20.3049,-6.0366,18.1707
1595879407,0.8253,-0.1093,-0.1738,22.5000,-0.1829,20.0000
1595879407,0.7534,-0.0986,-0.1633,25.5488,2.1951,20.9756
1595879407,0.7116,-0.0823,-0.1398,29.1463,0.4878,21.1585
1595879407,0.6971,-0.0773,-0.1268,32.8659,-1.2805,20.4878
1595879407,0.6774,-0.1013,-0.1072,35.1829,-0.0610,18.9024
1595879407,0.6539,-0.1443,-0.0776,36.1585,4.2073,16.3415
1595879407,0.6412,-0.1675,-0.0812,36.0366,9.1463,12.9268
1595879408,0.6608,-0.1565,-0.1350,35.6707,12.7439,8.8415
1595879408,0.6570,-0.1324,-0.1484,35.6707,16.5854,5.0610
1595879408,0.5970,-0.1072,-0.1605,35.6707,20.6098,2.0122
1595879408,0.5512,-0.0792,-0.1830,37.1341,22.1951,-2.5000
1595879408,0.5151,-0.0341,-0.2030,39.0244,18.7805,-8.1098
1595879408,0.4872,-0.0070,-0.2136,42.1951,9.0244,-12.5000
1595879408,0.5209,0.0064,-0.2031,44.1463,-4.8171,-17.1951
1595879408,0.6045,0.0087,-0.2003,44.3902,-14.7561,-22.8049
1595879408,0.6863,0.0188,-0.1689,44.3293,-16.4024,-29.5122
1595879408,0.7297,0.0607,-0.0937,45.1829,-10.5488,-35.2439
1595879408,0.7200,0.0936,-0.0242,45.5488,1.5854,-39.2683
1595879408,0.6990,0.1005,0.0181,42.4390,15.1220,-44.8171
1595879408,0.6624,0.1080,0.0403,37.1341,28.5366,-51.5854
1595879408,0.6266,0.1252,0.0319,31.6463,38.0488,-56.4024
1595879408,0.6777,0.1359,-0.0687,25.8537,39.2073,-60.9756
1595879408,0.7896,0.1573,-0.1844,20.1220,29.3293,-65.4878
1595879408,0.9320,0.1748,-0.2302,17.0122,10.1220,-65.6098
1595879408,1.0146,0.2085,-0.1983,14.5732,-8.1098,-63.7195
1595879408,1.0143,0.2532,-0.0851,14.1463,-26.6463,-62.3171
1595879408,1.0081,0.2373,-0.0081,11.0976,-43.5366,-63.5366
1595879408,1.0339,0.1409,-0.0065,2.5000,-49.7561,-74.0854
1595879408,1.0690,0.0848,-0.0488,-9.6341,-47.3781,-84.7561
1595879408,1.0888,0.0549,-0.1825,-19.9390,-40.0610,-88.4146
1595879408,1.0997,0.0280,-0.2926,-27.8049,-35.4268,-92.8049
1595879408,1.0675,0.0499,-0.3257,-34.3293,-39.0244,-94.6951
1595879408,1.1047,0.0573,-0.3395,-39.4512,-45.3049,-93.8415
1595879408,1.2106,0.0399,-0.3092,-44.7561,-44.0244,-101.7683
1595879408,1.2754,-0.0101,-0.2617,-50.4268,-27.9878,-113.7195
1595879408,1.3109,0.0103,-0.2540,-57.6829,6.5244,-126.9512
1595879408,1.2870,0.0715,-0.2291,-57.0122,47.6220,-136.7683
1595879408,1.2317,0.1219,-0.2216,-56.6463,74.3293,-137.6829
1595879408,1.2369,0.0462,-0.2169,-60.6098,84.3293,-134.3902
1595879408,1.2227,0.0616,-0.1702,-62.9878,78.1707,-141.0976
1595879408,1.1355,0.0764,-0.0880,-59.6341,63.7195,-145.7927
1595879408,1.1259,0.0514,0.0007,-61.5244,44.4512,-152.1342
1595879408,1.1903,0.0759,0.1037,-63.7195,18.6585,-162.9878
1595879408,1.2628,0.0917,0.1959,-68.4756,-4.5122,-168.4146
1595879408,1.2988,0.1105,0.2593,-77.6220,-16.8902,-173.9025
1595879408,1.3140,0.0886,0.2709,-87.0732,-17.9268,-175.4268
1595879408,1.3223,0.0737,0.2408,-94.5122,-13.6585,-175.9756
1595879408,1.3541,0.0756,0.1946,-100.1220,-10.6707,-177.4390
1595879408,1.4158,0.1006,0.1394,-105.0000,-8.1098,-179.5732
1595879408,1.4993,0.1401,0.1177,-107.9268,-4.6341,-181.4634
1595879408,1.5795,0.1784,0.1218,-111.2805,3.8415,-182.0732
1595879408,1.5893,0.1765,0.1262,-115.8537,24.2683,-181.0976
1595879408,1.5096,0.1378,0.1277,-118.3537,55.3049,-180.6707
1595879408,1.3704,0.0963,0.1423,-117.3781,88.1707,-180.7927
1595879408,1.2134,0.0580,0.1478,-113.9024,112.7439,-180.6707
1595879408,1.0703,0.0547,0.1553,-107.3781,123.3537,-180.1829
1595879408,1.0225,0.1161,0.1861,-97.2561,114.8781,-179.8781
1595879408,1.1265,0.2056,0.2038,-89.5732,91.3415,-179.0854
1595879408,1.2065,0.2665,0.2164,-86.4024,64.7561,-176.2195
1595879408,1.1545,0.2745,0.2252,-84.2683,44.5732,-171.7683
1595879408,1.0505,0.2573,0.2208,-80.0610,32.4390,-167.8659
1595879408,0.9694,0.2530,0.2044,-74.3293,20.7317,-165.5488
1595879408,0.9091,0.2459,0.1792,-69.3293,5.2439,-162.8049
1595879408,0.8661,0.2392,0.1430,-64.6341,-12.5000,-159.9390
1595879408,0.8265,0.2462,0.1138,-59.3293,-29.9390,-157.3781
1595879408,0.7875,0.2572,0.0867,-53.0488,-45.0000,-155.3659
1595879408,0.7528,0.2612,0.0701,-47.5610,-55.3049,-154.4512
1595879408,0.7203,0.2764,0.0668,-42.1341,-60.3659,-154.8781
1595879408,0.7036,0.3063,0.0664,-37.1341,-61.5854,-156.4634
1595879408,0.6975,0.3461,0.0786,-32.7439,-59.3902,-158.5976
1595879408,0.7413,0.4067,0.0961,-28.5976,-54.4512,-161.4634
1595879408,0.8184,0.4897,0.1323,-26.0976,-45.7927,-164.8781
1595879408,0.8418,0.5704,0.1648,-25.7927,-32.9878,-167.8049
1595879408,0.7896,0.6343,0.1716,-25.6098,-17.1341,-170.9756
1595879408,0.6997,0.6970,0.1602,-23.1098,-0.8537,-174.8781
1595879408,0.6338,0.7727,0.1465,-18.3537,11.5244,-178.9634
1595879408,0.5882,0.8674,0.1234,-14.2683,18.7805,-183.3537
1595879408,0.5651,0.9672,0.0980,-11.4634,21.8293,-188.5976
1595879408,0.5699,1.0614,0.0740,-10.6707,22.6220,-194.4512
1595879408,0.5815,1.1501,0.0603,-10.1220,23.2927,-198.8415
1595879408,0.5692,1.2333,0.0714,-8.4756,25.5488,-201.4025
1595879408,0.5388,1.2994,0.0996,-6.3415,29.3902,-202.8659
1595879408,0.4980,1.3560,0.1353,-5.0000,33.4756,-202.8659
1595879408,0.4580,1.4146,0.1746,-2.7439,35.2439,-201.5854
1595879408,0.4418,1.4625,0.2205,-0.0610,33.6585,-198.0488
1595879408,0.4492,1.4917,0.2620,2.0732,28.9634,-191.3415
1595879408,0.4587,1.4824,0.2990,2.8049,21.8293,-181.8902
1595879408,0.4775,1.4578,0.3333,2.8049,15.1829,-169.3293
1595879408,0.4807,1.4395,0.3558,3.9634,11.2805,-154.6951
1595879408,0.4520,1.4166,0.3474,5.5488,11.5244,-138.5976
1595879408,0.4033,1.3864,0.3192,8.2927,15.1220,-120.8537
1595879408,0.3263,1.3480,0.2637,12.8049,18.5976,-102.3171
1595879408,0.2147,1.2819,0.1890,17.3171,18.7195,-83.7805
1595879408,0.0253,1.1956,0.1133,20.3659,13.0488,-66.3415
1595879408,-0.1357,1.0928,0.0959,25.4268,1.4024,-52.1951
1595879408,-0.1793,1.0091,0.1384,28.4756,-13.3537,-44.2073
1595879408,-0.1359,1.0065,0.2016,29.9390,-29.5732,-39.6951
1595879408,-0.0740,1.0300,0.2537,30.1829,-42.9878,-37.9268
1595879408,-0.0375,1.0419,0.2784,28.7195,-50.9756,-39.6951
1595879408,-0.0206,1.0538,0.2586,27.8049,-56.1585,-41.6463
1595879408,0.0118,1.0610,0.2208,27.3780,-63.0488,-42.1951
1595879408,0.0837,1.0524,0.1783,24.9390,-73.5976,-43.6585
1595879408,0.1619,1.0492,0.1379,19.0854,-83.8415,-45.8537
1595879408,0.2246,1.0768,0.1099,12.3171,-86.0976,-48.5366
1595879409,0.2357,1.1346,0.0864,6.5244,-76.9512,-53.1098
1595879409,0.1981,1.1845,0.0710,2.0122,-59.7561,-57.9878
1595879409,0.1390,1.2070,0.0596,-1.1585,-40.0610,-60.6707
1595879409,0.0739,1.1907,0.0726,-3.7195,-23.5976,-61.4634
1595879409,0.0392,1.1548,0.0926,-4.2073,-14.0244,-61.8293
1595879409,0.0454,1.1091,0.1146,-3.5366,-10.9146,-61.4024
1595879409,0.0537,1.0712,0.1404,-1.7683,-10.8537,-59.6951
1595879409,0.0519,1.0337,0.1670,2.1951,-10.6098,-58.2927
1595879409,0.0375,1.0019,0.1800,7.7439,-9.2073,-57.2561
1595879409,0.0287,0.9695,0.1725,12.7439,-6.7073,-55.2439
1595879409,0.0117,0.9533,0.1690,17.5610,-3.7805,-53.1707
1595879409,0.0040,0.9474,0.1669,22.3171,-1.2195,-52.0732
1595879409,-0.0034,0.9368,0.1537,25.4268,1.4024,-50.9756
1595879409,-0.0168,0.9286,0.1398,27.4390,5.0610,-49.3293
1595879409,-0.0335,0.9307,0.1187,29.2073,9.8780,-48.3537
1595879409,-0.0509,0.9539,0.1089,30.1829,15.0000,-47.6220
1595879409,-0.0671,0.9864,0.0988,30.4878,18.9634,-47.6220
1595879409,-0.0734,1.0117,0.0920,29.6341,21.3415,-48.5976
1595879409,-0.0756,1.0309,0.0906,27.3171,22.1341,-49.2683
1595879409,-0.0917,1.0472,0.0854,24.3293,22.0122,-49.2073
1595879409,-0.1120,1.0648,0.0828,21.5244,21.1585,-49.2073
1595879409,-0.1437,1.0613,0.0731,18.2317,18.1707,-49.5732
1595879409,-0.1688,1.0554,0.0646,15.7317,13.1707,-49.3293
1595879409,-0.1923,1.0497,0.0589,14.1463,6.4634,-48.7805
1595879409,-0.2215,1.0400,0.0525,12.6220,-1.4024,-47.3171
1595879409,-0.2351,1.0227,0.0510,11.1585,-8.9024,-45.3049
1595879409,-0.2376,1.0098,0.0591,10.6098,-15.6098,-43.3537
1595879409,-0.2432,1.0037,0.0704,10.7927,-21.2805,-40.3659
1595879409,-0.2509,1.0137,0.0771,10.7927,-25.3659,-36.6463
1595879409,-0.2666,1.0338,0.0803,11.3415,-27.9878,-32.8659
1595879409,-0.2974,1.0536,0.0823,12.0732,-30.0610,-29.2073
1595879409,-0.3265,1.0658,0.0862,12.3171,-32.3780,-25.4268
1595879409,-0.3517,1.0665,0.0872,11.8293,-35.1220,-22.1341
1595879409,-0.3765,1.0549,0.0912,11.0366,-38.0488,-19.4512
1595879409,-0.3975,1.0463,0.0903,10.1829,-40.8537,-16.9512
1595879409,-0.4070,1.0518,0.0942,9.2073,-43.6585,-15.2439
1595879409,-0.4106,1.0574,0.1001,7.6220,-47.0732,-14.5732
1595879409,-0.4080,1.0599,0.1033,5.6707,-50.3659,-14.6341
1595879409,-0.4127,1.0574,0.1019,3.4146,-52.5000,-14.6951
1595879409,-0.4263,1.0457,0.1006,1.8902,-54.0854,-13.9634
1595879409,-0.4282,1.0355,0.1072,0.3659,-57.1951,-13.4146
1595879409,-0.4103,1.0249,0.1148,-1.5244,-62.6829,-13.4756
1595879409,-0.3845,1.0126,0.1302,-4.0244,-67.5000,-14.3293
1595879409,-0.3692,1.0099,0.1456,-6.2805,-68.9024,-15.2439
1595879409,-0.3665,1.0135,0.1486,-8.1098,-66.6463,-16.1585
1595879409,-0.3719,1.0175,0.1469,-9.9390,-62.2561,-17.1951
1595879409,-0.3779,1.0115,0.1454,-11.6463,-57.8659,-17.9878
1595879409,-0.3904,0.9830,0.1462,-13.2317,-54.5732,-18.7195
1595879409,-0.3929,0.9459,0.1438,-14.9390,-51.7683,-19.6341
1595879409,-0.3861,0.9231,0.1398,-15.9756,-49.3293,-20.6098
1595879409,-0.3733,0.9087,0.1395,-16.1585,-47.9878,-21.7683
1595879409,-0.3611,0.8996,0.1367,-15.9146,-47.6829,-22.9268
1595879409,-0.3546,0.8952,0.1332,-15.8537,-47.6220,-23.9024
1595879409,-0.3612,0.8936,0.1230,-15.4268,-47.6220,-24.6951
1595879409,-0.3519,0.8947,0.1172,-15.1220,-47.9268,-25.6098
1595879409,-0.3316,0.8990,0.1156,-15.1829,-49.2683,-26.2805
1595879409,-0.3156,0.8962,0.1135,-15.4878,-51.2195,-26.4024
1595879409,-0.3104,0.8877,0.1151,-15.6707,-52.3171,-26.5854
1595879409,-0.3018,0.8785,0.1168,-15.5488,-52.9878,-27.0122
1595879409,-0.2834,0.8604,0.1168,-15.1829,-54.3293,-27.4390
1595879409,-0.2646,0.8370,0.1216,-14.5732,-56.5854,-27.5000
1595879409,-0.2438,0.8172,0.1268,-13.9634,-58.2927,-26.9512
1595879409,-0.2341,0.8076,0.1380,-12.7439,-58.1707,-26.6463
1595879409,-0.2326,0.8043,0.1481,-11.3415,-56.0366,-26.3415
1595879409,-0.2334,0.7965,0.1536,-10.4268,-52.6829,-25.8537
1595879409,-0.2277,0.7982,0.1546,-9.0854,-50.2439,-25.2439
1595879409,-0.2358,0.7944,0.1516,-7.8049,-48.7805,-24.4512
1595879409,-0.2435,0.7905,0.1522,-6.4634,-47.1951,-23.3537
1595879409,-0.2432,0.7989,0.1582,-4.5732,-45.8537,-22.5610
1595879409,-0.2413,0.8141,0.1660,-2.9268,-45.0610,-21.7683
1595879409,-0.2333,0.8313,0.1771,-1.8293,-44.6951,-20.8537
1595879409,-0.2272,0.8474,0.1844,-1.0366,-43.6585,-19.6951
1595879409,-0.2298,0.8488,0.1932,-0.1829,-41.5854,-18.5366
1595879409,-0.2442,0.8439,0.2038,0.4878,-39.4512,-17.1341
1595879409,-0.2477,0.8394,0.2164,0.9146,-37.7439,-15.7317
1595879409,-0.2485,0.8351,0.2170,1.0976,-36.7073,-14.3902
1595879409,-0.2477,0.8452,0.2255,1.5244,-37.1341,-12.8659
1595879409,-0.2365,0.8618,0.2357,2.0122,-38.1098,-11.7073
1595879409,-0.2319,0.8639,0.2444,1.7683,-39.3293,-11.0976
1595879409,-0.2283,0.8686,0.2531,2.0122,-40.9146,-10.3049
1595879409,-0.2208,0.8849,0.2599,2.9878,-41.9512,-8.7805
1595879409,-0.2197,0.8913,0.2674,3.5366,-42.3171,-7.2561
1595879409,-0.2175,0.8938,0.2717,3.5976,-42.0122,-5.9146
1595879409,-0.2198,0.8895,0.2765,3.5366,-41.4634,-3.9634
1595879409,-0.2307,0.8784,0.2835,3.9024,-40.9756,-1.5854
1595879409,-0.2419,0.8625,0.2988,4.5732,-40.8537,0.5488
1595879409,-0.2515,0.8511,0.3197,5.1829,-41.2195,2.5610
1595879409,-0.2681,0.8436,0.3392,5.1829,-41.8293,4.5732
1595879409,-0.2769,0.8354,0.3510,5.3049,-42.6220,6.0976
1595879409,-0.2742,0.8286,0.3574,5.4878,-44.2073,7.1341
1595879409,-0.2632,0.8206,0.3656,6.1585,-47.2561,8.2317
1595879409,-0.2472,0.8183,0.3696,6.2195,-50.6707,9.1463
1595879409,-0.2396,0.8211,0.3644,5.3049,-53.5366,9.8171
1595879409,-0.2392,0.8226,0.3596,5.3659,-55.4878,10.0610
1595879409,-0.2321,0.8216,0.3661,5.7317,-57.2561,10.0610
1595879409,-0.2235,0.8209,0.3742,5.3049,-59.3902,10.0000
1595879409,-0.2220,0.8194,0.3873,5.1220,-61.0366,10.0610
1595879409,-0.2004,0.8158,0.4080,5.3659,-61.7683,9.5732
1595879409,-0.1790,0.8072,0.4308,5.1829,-61.5854,9.4512
1595879409,-0.1588,0.8072,0.4478,4.8780,-60.2439,9.9390
1595879409,-0.1401,0.8096,0.4601,4.5732,-57.4390,9.8780
1595879410,-0.1265,0.8125,0.4698,4.5732,-53.6585,9.5732
1595879410,-0.1149,0.8149,0.4769,4.4512,-48.9634,9.7561
1595879410,-0.1093,0.8208,0.4752,4.2073,-43.4146,10.0610
1595879410,-0.0984,0.8356,0.4691,4.0854,-37.9268,10.2439
1595879410,-0.0807,0.8411,0.4642,3.4756,-33.1707,10.5488
1595879410,-0.0863,0.8386,0.4625,2.4390,-28.5976,11.1585
1595879410,-0.1091,0.8426,0.4590,2.4390,-23.6585,11.8293
1595879410,-0.1403,0.8441,0.4557,3.4756,-20.0610,11.6463
1595879410,-0.1524,0.8332,0.4529,4.6341,-19.6341,11.2805
1595879410,-0.1534,0.8241,0.4445,5.6707,-22.1951,11.8293
1595879410,-0.1743,0.8140,0.4326,7.0732,-25.7317,13.1098
1595879410,-0.1956,0.8170,0.4317,9.6951,-29.6341,13.7195
1595879410,-0.1895,0.8387,0.4282,12.1341,-35.1829,13.7195
1595879410,-0.1693,0.8704,0.4257,13.7195,-41.9512,13.9634
1595879410,-0.1462,0.9175,0.4367,15.3659,-48.7195,14.2683
1595879410,-0.1154,0.9675,0.4504,16.6463,-53.3537,14.0244
1595879410,-0.0885,1.0023,0.4618,16.9512,-54.6341,13.5976
1595879410,-0.0894,1.0125,0.4677,17.6220,-53.5976,13.6585
1595879410,-0.0972,1.0223,0.4578,19.0854,-52.0122,14.2073
1595879410,-0.0964,1.0345,0.4467,19.7561,-50.9146,14.5122
1595879410,-0.0883,1.0381,0.4332,19.3293,-49.4512,14.7561
1595879410,-0.0800,1.0444,0.4154,18.2927,-47.2561,15.1829
1595879410,-0.0755,1.0535,0.3965,16.9512,-44.5732,15.7927
1595879410,-0.0651,1.0630,0.3857,15.3659,-41.4634,16.3415
1595879410,-0.0629,1.0754,0.3745,13.1098,-38.5366,16.5244
1595879410,-0.0693,1.0858,0.3552,10.2439,-35.9756,17.1341
1595879410,-0.0784,1.1100,0.3419,7.3780,-33.5366,17.9268
1595879410,-0.1003,1.1409,0.3195,4.2683,-32.3780,18.5366
1595879410,-0.1152,1.1591,0.2939,0.8537,-33.2317,18.9024
1595879410,-0.1230,1.1506,0.2672,-3.1707,-37.4390,19.4512
1595879410,-0.1260,1.1483,0.2346,-6.3415,-44.1463,20.9756
1595879410,-0.1160,1.1544,0.2056,-8.6585,-51.8293,22.3171
1595879410,-0.1057,1.1600,0.1882,-10.7927,-60.5488,22.9878
1595879410,-0.1064,1.1534,0.1675,-12.6220,-69.6951,23.7195
1595879410,-0.1046,1.1414,0.1559,-13.0488,-78.3537,24.5732
1595879410,-0.1005,1.1291,0.1517,-12.2561,-86.7073,25.2439
1595879410,-0.1028,1.1013,0.1494,-11.5244,-94.5732,25.9756
1595879410,-0.1107,1.0588,0.1475,-10.3659,-101.8293,26.2195
1595879410,-0.1138,1.0024,0.1451,-8.1098,-108.9024,26.0976
1595879410,-0.1054,0.9440,0.1418,-5.1829,-116.1585,25.6098
1595879410,-0.0891,0.9059,0.1385,-2.0732,-122.8049,24.2683
1595879410,-0.0389,0.8899,0.1409,0.9146,-128.2317,21.8902
1595879410,0.0391,0.8865,0.1484,2.5610,-131.4024,18.5976
1595879410,0.0865,0.8819,0.1542,2.7439,-129.8781,15.6098
1595879410,0.0886,0.8692,0.1441,3.0488,-121.8902,12.5610
1595879410,0.0797,0.8588,0.1299,4.3293,-110.1829,8.7195
1595879410,0.1050,0.8540,0.1204,5.1220,-99.0244,4.5732
1595879410,0.1467,0.8501,0.1168,3.9024,-89.2073,0.9756
1595879410,0.1848,0.8523,0.1157,2.3171,-78.7195,-2.1951
1595879410,0.2059,0.8652,0.1069,1.5854,-66.5244,-5.7317
1595879410,0.1956,0.8870,0.0939,1.7683,-55.0610,-9.3293
1595879410,0.1616,0.9103,0.0827,3.1098,-48.2927,-12.4390
1595879410,0.1483,0.9281,0.0750,4.9390,-48.7805,-15.0000
1595879410,0.1604,0.9394,0.0755,5.8537,-56.0976,-16.6463
1595879410,0.1806,0.9505,0.0854,5.7317,-67.0122,-16.8293
1595879410,0.3087,1.0474,0.1097,5.0610,-101.5854,-10.0000
1595879410,0.3199,1.0562,0.1172,6.5244,-99.1463,-7.4390
1595879410,0.3700,1.0687,0.1776,8.5976,-89.5122,-2.4390
1595879410,0.3714,1.0649,0.2155,9.2683,-80.4268,0.6098
1595879410,0.3597,1.0535,0.2357,10.5488,-68.7195,3.2317
1595879410,0.3513,1.0513,0.2647,14.3293,-49.2073,9.6341
1595879410,0.3287,1.0447,0.2767,14.8171,-40.1829,12.6220
1595879410,0.3005,1.0464,0.2809,15.3659,-30.0610,15.0610
1595879410,0.2772,1.0554,0.2869,15.4268,-19.7561,16.7073
1595879410,0.2579,1.0558,0.2965,15.3659,-10.7317,17.6220
1595879410,0.2064,1.0190,0.3329,16.2805,4.0244,20.5488
1595879410,0.1960,0.9648,0.3559,15.5488,5.8537,20.9756
1595879410,0.2073,0.9397,0.3600,14.2683,5.6707,20.9756
1595879410,0.2046,0.9182,0.3541,12.4390,4.9390,21.2805
1595879410,0.2103,0.9079,0.3416,11.2805,4.1463,21.3415
1595879410,0.2301,0.9141,0.3290,10.6098,2.4390,20.6707
1595879410,0.2592,0.9335,0.3137,8.8415,0.1829,19.6341
1595879410,0.2876,0.9559,0.3036,5.9756,-1.2195,18.7195
1595879411,0.2919,0.9756,0.2952,3.4146,-0.9756,17.4390
1595879411,0.2921,0.9909,0.2874,1.0366,0.7317,15.6707
1595879411,0.2773,0.9835,0.2821,-2.0122,2.5610,13.9024
1595879411,0.2570,0.9680,0.2823,-4.2073,3.1707,12.5000
1595879411,0.2659,0.9630,0.2794,-5.4268,1.5244,11.1585
1595879411,0.2949,0.9714,0.2797,-7.6829,-2.3171,10.2439
1595879411,0.3188,0.9622,0.2829,-11.4634,-6.1585,10.3049
1595879411,0.3367,0.9626,0.2605,-11.9512,-17.7439,8.3537
1595879411,0.3832,0.9551,0.2256,-13.2317,-33.3537,11.8293
1595879411,0.3983,0.9404,0.2155,-14.2683,-38.5366,12.4390
1595879411,0.4202,0.9308,0.2102,-14.3293,-41.2195,12.9268
1595879411,0.4362,0.9320,0.2155,-14.1463,-42.5610,13.9634
1595879411,0.4395,0.9257,0.2169,-14.2683,-42.6220,14.8171
1595879411,0.4501,0.9207,0.2136,-14.2073,-41.7073,15.0610
1595879411,0.4646,0.9114,0.2145,-14.0854,-40.8537,15.5488
1595879411,0.4622,0.8781,0.2033,-15.3659,-38.5976,17.2561
1595879411,0.4561,0.8797,0.1973,-15.4268,-36.9512,18.6585
1595879411,0.4898,0.8994,0.1921,-17.6829,-33.2317,21.0366
1595879411,0.4958,1.0048,0.1647,-18.7805,-26.2805,23.1098
1595879411,0.4965,1.0873,0.1628,-18.6585,-23.2927,23.0488
1595879411,0.4993,1.1735,0.1698,-19.0244,-21.5244,21.8902
1595879411,0.4711,1.2781,0.1851,-18.7195,-16.7073,19.0854
1595879411,0.4482,1.2354,0.2009,-13.6585,-18.2317,18.5976
1595879411,0.4709,1.1878,0.2101,-10.3049,-23.7195,19.7561
1595879411,0.5010,1.1375,0.2269,-6.9512,-28.4146,21.4634
1595879411,0.5377,0.9992,0.2356,14.5122,-8.7195,46.3415
1595879411,0.5430,0.9630,0.2339,18.0488,0.2439,54.2683
1595879411,0.5457,0.9398,0.2287,20.4268,9.4512,62.8659
1595879411,0.5490,0.9277,0.2259,22.3171,17.7439,70.1829
1595879411,0.5681,0.9214,0.2209,23.9024,24.2683,75.9756
1595879411,0.5791,0.9268,0.2081,25.0000,28.7805,81.4634
1595879411,0.5639,0.9422,0.1919,26.7683,31.4024,87.7439
1595879411,0.5325,0.9452,0.1797,28.1707,30.7927,93.5366
1595879411,0.5061,0.9511,0.1890,28.2317,27.6220,97.7439
1595879411,0.4864,0.9396,0.2029,26.5854,25.7927,100.6098
1595879411,0.4354,0.9147,0.2155,23.8415,26.4634,102.6220
1595879411,0.3818,0.8831,0.2224,23.7195,26.0976,103.9634
1595879411,0.3667,0.8120,0.2106,30.8537,-4.5122,104.2073
1595879411,0.4460,0.7947,0.1874,42.5610,-60.4878,99.2073
1595879411,0.4626,0.7930,0.2010,45.0000,-69.1463,95.2439
1595879411,0.4395,0.7700,0.2510,48.0488,-71.8293,86.2195
1595879411,0.3948,0.7418,0.2623,48.8415,-66.5854,82.8659
1595879411,0.3563,0.7131,0.2504,49.4512,-60.0000,79.4512
1595879411,0.3616,0.6908,0.1736,51.8293,-57.5000,75.3049
1595879411,0.4876,0.6777,0.0578,57.9878,-65.1829,66.5244
1595879411,0.5705,0.6680,0.0554,59.1463,-72.7439,60.2439
1595879411,0.5934,0.6656,0.0822,60.0610,-69.2073,54.8171
1595879411,0.5588,0.6782,0.1529,59.1463,-50.0610,48.2317
1595879411,0.4990,0.9269,0.0735,46.4634,19.5122,-7.1951
1595879411,0.4728,0.9408,0.0516,42.2561,24.2683,-9.2073
1595879411,0.3434,0.8791,0.0098,31.7683,27.8049,-17.4390
1595879411,0.2463,0.8536,0.0485,27.1341,16.1585,-23.6585
1595879411,0.3327,0.9150,0.0641,18.2317,-6.4024,-32.6220
1595879411,0.3273,0.9460,0.0672,15.3659,-13.7805,-35.4878
1595879411,0.3073,0.9724,0.0417,9.3293,-25.3659,-43.2927
1595879411,0.3530,0.9860,0.0451,6.8902,-34.2683,-46.8902
1595879411,0.3539,0.9960,0.0325,4.8171,-41.2805,-50.0610
1595879411,0.3584,1.0051,0.0173,4.0854,-46.4024,-53.2927
1595879411,0.3712,1.0087,0.0118,4.0244,-52.8659,-55.5488
1595879411,0.4037,1.0160,-0.0009,4.1463,-60.7317,-57.1951
1595879411,0.4202,1.0263,-0.0135,4.5122,-67.8659,-58.2927
1595879411,0.4297,1.0293,-0.0295,4.1463,-75.0610,-57.9878
1595879411,0.4658,1.0389,-0.0716,1.5854,-82.6220,-55.0610
1595879411,0.4603,1.0428,-0.0901,0.4878,-81.7073,-52.8049
1595879411,0.4315,1.0344,-0.0926,-2.7439,-81.1585,-47.1341
1595879411,0.4178,1.0303,-0.0825,-5.1829,-79.7561,-44.3293
1595879411,0.4375,1.0116,-0.0975,-7.9878,-75.4268,-41.2195
1595879411,0.4039,0.9660,-0.1201,-10.4268,-64.6951,-34.4512
1595879412,0.4738,0.9526,-0.1578,-10.1829,-66.2195,-30.2439
1595879412,0.5967,0.9620,-0.1820,-9.8780,-69.8781,-26.3415
1595879412,0.5710,0.9136,-0.1609,-4.2683,-37.6829,-24.0244
1595879412,0.5557,0.9113,-0.1472,-4.3902,-32.9268,-23.9024
1595879412,0.5294,0.9193,-0.1360,-5.1829,-24.9390,-24.2683
1595879412,0.5338,0.9200,-0.1162,-7.3171,-15.1220,-24.5122
1595879412,0.5367,0.9368,-0.1541,-8.4756,1.5244,-26.9512
1595879412,0.6229,0.9640,-0.1760,-7.5610,5.0000,-26.2195
1595879412,0.7799,0.9886,-0.1605,-2.8049,6.6463,-17.9878
1595879412,0.7554,1.0005,-0.1968,-0.6098,9.5122,-10.9756
1595879412,0.7070,1.0126,-0.2430,3.2317,14.6951,-5.7927
1595879412,0.6463,1.0026,-0.3041,7.4390,19.5732,-1.0976
1595879412,0.6507,1.0071,-0.3358,12.0732,22.1341,3.5366
1595879412,0.7457,1.0201,-0.3293,16.4024,23.3537,9.0854
1595879412,0.7234,1.0353,-0.2761,18.5366,23.2927,14.9390
1595879412,0.4523,1.0186,-0.1876,22.9268,25.1220,14.4512
1595879412,0.3677,0.9557,-0.1395,25.9146,40.4268,3.4756
1595879412,0.4139,0.9829,-0.1093,25.8537,46.6463,0.3659
1595879412,0.4095,1.0350,-0.0853,28.5366,40.3659,10.3049
1595879412,0.4638,1.0230,-0.0369,28.1707,43.2927,10.0000
1595879412,0.5356,1.0274,-0.0280,21.7073,53.4756,8.1098
1595879412,0.5756,1.0822,-0.0622,17.1951,56.8293,16.5244
1595879412,0.5461,1.0895,-0.0457,17.8049,14.7561,37.9878
1595879412,0.3394,0.9553,-0.0726,23.7195,1.0366,36.2805
1595879412,0.3328,0.9448,-0.0959,26.2195,0.5488,33.7805
1595879412,0.3907,0.9931,-0.0880,34.5732,6.4024,30.1220
1595879412,0.4351,1.0098,-0.0712,37.7439,14.0244,29.9390
1595879412,0.4606,1.0195,-0.0662,39.6341,22.3780,31.8293
1595879412,0.4958,1.0393,-0.1004,39.5122,42.5000,37.8049
1595879412,0.4962,1.0334,-0.1096,38.7195,54.4512,40.7317
1595879412,0.6059,0.9024,-0.1330,42.8049,35.7927,62.3171
1595879412,0.6192,0.8879,-0.1336,43.2317,40.4878,64.0854
1595879412,0.6038,0.8490,-0.1454,43.9634,64.3902,68.6585
1595879412,0.5582,0.8206,-0.1608,43.6585,68.7805,69.8171
1595879412,0.5203,0.7932,-0.1802,43.8415,65.3049,70.9756
1595879412,0.7048,0.7646,-0.2092,45.9146,42.7439,71.5244
1595879412,0.6507,0.6946,-0.1691,50.0610,70.7317,67.4390
1595879412,0.5945,0.5616,-0.1606,57.9268,60.4878,64.6341
1595879412,0.7817,0.5127,-0.1138,63.9634,58.1707,56.0366
1595879412,0.7488,0.4844,-0.1060,68.4146,77.5000,50.2439
1595879412,0.7646,0.4552,-0.1243,70.9756,75.3049,45.0000
1595879412,0.7991,0.4509,-0.1225,72.3171,65.5488,43.4146
1595879412,0.9714,0.5029,-0.1801,73.6585,75.1220,32.8659
1595879412,0.9380,0.5013,-0.1938,73.4756,87.9268,28.2317
1595879412,0.9473,0.5389,-0.2274,74.0244,82.6829,17.0732
1595879412,0.9719,0.5405,-0.2267,74.0854,75.7317,13.1098
1595879412,0.9775,0.5319,-0.2070,74.1463,71.0976,8.3537
1595879412,0.9138,0.4907,-0.1469,73.8415,70.6707,-2.2561
1595879412,0.8474,0.4752,-0.1093,74.2073,71.2195,-3.9024
1595879412,0.8193,0.4511,-0.1377,74.0244,72.0122,-5.0000
1595879412,0.8495,0.4565,-0.1255,76.2195,70.0610,-6.7073
1595879412,0.8195,0.3705,-0.0828,75.6098,44.0854,-2.5610
1595879412,0.7901,0.3571,-0.1033,75.4268,45.7927,-3.1098
1595879412,0.8275,0.3896,-0.1061,78.3537,50.6707,-5.6707
1595879412,0.8684,0.4059,-0.1097,77.7439,50.1829,-7.3171
1595879412,0.9038,0.4138,-0.1270,75.2439,49.1463,-9.6951
1595879412,0.9225,0.4445,-0.1417,73.7195,52.5610,-13.1098
1595879412,0.9186,0.4724,-0.1480,72.5610,57.0732,-16.2805
1595879412,0.9277,0.4869,-0.1579,71.0976,58.2317,-18.9634
1595879412,0.9382,0.4946,-0.1665,69.3902,56.2195,-21.0976
1595879412,0.9359,0.5001,-0.1561,68.2927,52.8049,-23.1707
1595879412,0.9335,0.5023,-0.1351,67.0732,49.0244,-25.1829
1595879412,0.9316,0.4962,-0.1188,65.8537,46.9512,-26.8293
1595879412,0.9047,0.4929,-0.0998,65.3659,48.4756,-28.2317
1595879412,0.8903,0.4930,-0.0852,65.0610,49.5122,-27.9268
1595879412,0.8987,0.4911,-0.0816,64.3293,50.0610,-27.6220
1595879412,0.9100,0.4940,-0.0822,63.2927,52.0732,-27.3780
1595879413,0.8545,0.5143,-0.0812,60.7927,53.9024,-24.3293
1595879413,0.8583,0.5109,-0.0744,59.6951,49.6341,-23.7805
1595879413,0.8744,0.5083,-0.0799,58.5976,45.4878,-23.5976
1595879413,0.8946,0.5105,-0.0764,57.9878,43.2927,-23.7195
1595879413,0.9068,0.5113,-0.0709,57.5000,43.7195,-23.9024
1595879413,0.9087,0.5145,-0.0676,56.7683,46.5854,-24.1463
1595879413,0.8947,0.5187,-0.0707,56.2805,50.9756,-24.2073
1595879413,0.8741,0.5273,-0.0739,56.4634,54.6951,-24.0854
1595879413,0.8580,0.5376,-0.0737,56.8902,54.5732,-23.7195
1595879413,0.8605,0.5449,-0.0760,57.3781,49.7561,-23.0488
1595879413,0.8766,0.5481,-0.0796,57.8659,42.5610,-22.5610
1595879413,0.8914,0.5460,-0.0818,58.2317,35.9146,-22.1341
1595879413,0.9108,0.5463,-0.0787,58.6585,32.1951,-22.3780
1595879413,0.9385,0.5408,-0.0831,58.5366,31.8293,-23.5366
1595879413,0.9453,0.5419,-0.0913,58.1707,35.1220,-24.5122
1595879413,0.9405,0.5511,-0.0995,58.2317,41.5244,-25.5488
1595879413,0.9242,0.5551,-0.1046,58.0488,49.0854,-26.9512
1595879413,0.9009,0.5542,-0.1044,57.9268,54.2683,-28.1707
1595879413,0.8735,0.5599,-0.1011,58.2927,55.0000,-28.9024
1595879413,0.8557,0.5698,-0.0804,59.3293,50.8537,-28.7195
1595879413,0.8638,0.5721,-0.0601,59.5732,44.2073,-28.1707
1595879413,0.8737,0.5654,-0.0577,58.9024,38.7805,-27.9268
1595879413,0.8594,0.5574,-0.0704,58.4146,36.5854,-27.5000
1595879413,0.8346,0.5554,-0.0774,58.2317,36.8902,-26.9512
1595879413,0.8299,0.5482,-0.0742,57.2561,37.2561,-26.8293
1595879413,0.8354,0.5425,-0.0647,55.4268,36.8902,-26.8293
1595879413,0.8463,0.5422,-0.0576,53.7805,37.6829,-26.5854
1595879413,0.8472,0.5494,-0.0579,52.3781,40.4878,-26.2805
1595879413,0.8306,0.5742,-0.0602,50.8537,44.6341,-25.7927
1595879413,0.7918,0.6110,-0.0717,49.5732,48.6585,-25.0610
1595879413,0.7651,0.6229,-0.0815,48.7195,49.5122,-24.8171
1595879413,0.7471,0.6238,-0.0787,47.8659,46.2195,-25.1220
1595879413,0.7455,0.6294,-0.0773,47.6220,40.2439,-25.3659
1595879413,0.7532,0.6217,-0.0817,46.7683,35.3659,-25.8537
1595879413,0.7791,0.6233,-0.0651,45.4878,33.4146,-28.5366
1595879413,0.8003,0.6292,-0.0558,41.8902,41.2805,-31.5244
1595879413,0.7663,0.6643,-0.0528,38.2927,52.0122,-32.6220
1595879413,0.7380,0.6854,-0.0385,36.7683,50.9146,-32.1341
1595879413,0.7407,0.7017,-0.0330,32.0732,36.0366,-29.8171
1595879413,0.7731,0.7083,-0.0485,28.8415,29.5122,-29.2073
1595879413,0.8356,0.7733,-0.0677,21.5244,30.3049,-31.3415
1595879413,0.8755,0.8348,-0.0860,16.9512,35.7317,-34.0244
1595879413,0.9402,0.9080,-0.1104,11.5244,41.5244,-37.7439
1595879413,0.9536,0.9792,-0.1338,5.9146,46.4634,-42.0122
1595879413,0.9490,0.9365,-0.0968,-1.6463,52.5000,-53.7805
1595879413,0.8955,0.8857,-0.0303,-0.9146,53.1707,-53.2927
1595879413,0.7701,0.8732,0.0792,2.9268,49.5122,-44.0854
1595879413,0.6385,0.8381,0.1465,5.3659,49.0854,-36.7683
1595879413,0.5325,0.8129,0.2025,5.1829,51.3415,-31.6463
1595879413,0.4619,0.7983,0.2388,6.0976,53.1707,-24.9390
1595879413,0.4240,0.7734,0.2556,6.7683,53.3537,-19.5122
1595879413,0.4421,0.7624,0.2574,6.4024,49.3902,-15.6707
1595879413,0.5011,0.7662,0.2444,5.7927,45.3659,-13.1098
1595879413,0.5564,0.7825,0.2283,6.3415,45.0610,-10.9756
1595879413,0.5822,0.8159,0.2233,7.6829,45.9756,-8.7805
1595879413,0.6160,0.8392,0.2265,7.3171,46.2195,-7.3780
1595879413,0.6377,0.8551,0.2291,5.6707,47.8049,-7.9268
1595879413,0.6509,0.8607,0.2244,4.7561,49.6951,-8.1098
1595879413,0.6450,0.8600,0.2293,3.7805,49.6951,-7.6220
1595879413,0.6318,0.8537,0.2384,2.9878,46.8902,-7.0732
1595879413,0.6371,0.8520,0.2404,2.4390,41.3415,-6.5244
1595879413,0.6503,0.8542,0.2429,2.5000,33.7805,-5.2439
1595879413,0.6542,0.8521,0.2446,2.5610,25.8537,-2.7439
1595879413,0.6430,0.8458,0.2466,2.1341,19.0854,-0.1220
1595879413,0.6295,0.8366,0.2440,1.9512,14.7561,2.6829
1595879413,0.6085,0.8156,0.2398,1.5244,12.8659,5.1829
1595879413,0.5947,0.7994,0.2321,0.8537,12.8659,7.2561
1595879413,0.6095,0.7859,0.2087,1.0366,14.1463,8.9024
1595879413,0.6160,0.7866,0.2095,2.3780,15.2439,10.1829
1595879413,0.6199,0.7908,0.2294,2.8659,15.7927,10.9756
1595879413,0.6318,0.7873,0.2377,3.0488,17.6220,10.8537
1595879413,0.6133,0.7767,0.2389,3.4146,20.8537,10.9756
1595879413,0.6017,0.7794,0.2499,5.0000,22.8049,11.1585
1595879413,0.6158,0.7808,0.2697,6.2805,21.3415,11.4024
1595879413,0.6417,0.7755,0.2808,6.6463,17.9268,11.6463
1595879413,0.6413,0.7554,0.2801,6.9512,17.0732,12.1951
1595879413,0.6465,0.7429,0.2667,7.1951,18.0488,12.3171
1595879413,0.6634,0.7285,0.2599,7.9268,17.5000,12.1951
1595879413,0.7037,0.6938,0.2386,8.0488,14.9390,12.1341
1595879413,0.7075,0.6910,0.2286,8.4146,16.7683,12.4390
1595879413,0.7048,0.6818,0.2301,8.5976,19.6341,12.6220
1595879413,0.6987,0.6674,0.2281,8.0488,22.5610,12.5000
1595879413,0.6895,0.6560,0.2122,6.8293,25.7317,13.1098
1595879413,0.6833,0.6487,0.2035,6.5854,29.2683,13.3537
1595879413,0.6822,0.6380,0.1882,6.7073,31.2805,13.8415
1595879414,0.7043,0.6230,0.1593,6.5854,30.9756,14.3902
1595879414,0.7224,0.6244,0.1497,8.7805,26.5244,15.8537
1595879414,0.7308,0.6276,0.1595,9.2683,25.3049,16.6463
1595879414,0.7325,0.6410,0.1654,8.9634,28.3537,18.5366
1595879414,0.7274,0.6419,0.1633,8.5366,30.6098,19.7561
1595879414,0.7171,0.6440,0.1593,7.6829,30.9146,20.9146
1595879414,0.7202,0.6406,0.1528,6.4024,29.6341,22.1341
1595879414,0.7218,0.6425,0.1435,5.0000,28.5976,22.6829
1595879414,0.7105,0.6427,0.1357,3.9024,27.8049,23.2927
1595879414,0.7104,0.6487,0.1430,2.0732,24.3902,23.5366
1595879414,0.7192,0.6440,0.1493,1.1585,21.5244,23.5976
1595879414,0.7267,0.6458,0.1559,0.3659,19.6341,23.7805
1595879414,0.7385,0.6516,0.1628,0.4268,18.2927,24.0244
1595879414,0.7430,0.6544,0.1732,-0.3659,17.4390,24.3902
1595879414,0.7349,0.6556,0.1794,-0.6707,16.8902,25.0000
1595879414,0.7140,0.6507,0.1805,-0.0610,15.3049,26.0366
1595879414,0.6933,0.6316,0.2006,0.1220,6.8902,27.7439
1595879414,0.6937,0.6230,0.1970,0.1829,2.2561,28.8415
1595879414,0.6914,0.6248,0.1920,0.4878,-0.7927,29.5732
1595879414,0.6994,0.6350,0.1846,1.8293,-3.1707,29.7561
1595879414,0.7326,0.6481,0.1797,2.6829,-5.7317,28.9024
1595879414,0.7774,0.6783,0.1788,3.5366,-7.5000,26.6463
1595879414,0.8143,0.7112,0.1714,3.9024,-7.0122,22.8049
1595879414,0.8373,0.7492,0.1617,4.5732,-4.8780,17.5000
1595879414,0.8594,0.7787,0.1471,6.7073,-3.2317,10.7927
1595879414,0.9072,0.8094,0.1452,9.5122,-4.7561,3.5366
1595879414,0.9561,0.8505,0.1583,12.5000,-9.0854,-2.6829
1595879414,0.9727,0.8812,0.1644,15.3659,-13.9634,-6.8293
1595879414,0.9282,0.8796,0.1652,17.9878,-17.0732,-8.5976
1595879414,0.8611,0.8423,0.1676,20.7927,-18.9634,-7.9878
1595879414,0.7939,0.7934,0.1729,23.1707,-20.1220,-6.0366
1595879414,0.7222,0.7538,0.1866,25.6098,-21.6463,-3.9634
1595879414,0.6609,0.7234,0.1984,27.9268,-22.4390,-2.0732
1595879414,0.6314,0.7001,0.1992,29.8171,-20.4268,-0.4268
1595879414,0.6180,0.6886,0.1898,31.8902,-15.9146,1.2195
1595879414,0.6155,0.6941,0.1785,34.2683,-10.4878,2.4390
1595879414,0.6460,0.7149,0.1775,35.7927,-5.5488,2.3780
1595879414,0.6907,0.7429,0.1785,36.0976,-0.7927,1.4024
1595879414,0.7433,0.7689,0.1736,35.3049,4.5122,-0.0610
1595879414,0.7727,0.7913,0.1634,34.0854,11.0366,-1.8293
1595879414,0.7668,0.8045,0.1481,32.0732,17.7439,-3.2927
1595879414,0.7549,0.8080,0.1314,30.3049,22.5610,-4.8780
1595879414,0.7542,0.8091,0.1133,28.5976,23.9024,-6.4634
1595879414,0.7460,0.8069,0.0994,27.0122,21.7683,-6.8902
1595879414,0.7495,0.7892,0.0823,25.1220,18.2927,-7.3780
1595879414,0.7628,0.7706,0.0690,23.4146,17.2561,-8.9634
1595879414,0.7560,0.7624,0.0673,23.1707,19.6341,-9.8780
1595879414,0.7440,0.7477,0.0710,22.5000,23.4146,-10.1220
1595879414,0.7477,0.7415,0.0767,20.7927,28.0488,-11.3415
1595879414,0.7352,0.7545,0.0842,19.4512,34.5122,-12.0122
1595879414,0.7103,0.7669,0.0935,18.7805,41.0976,-11.6463
1595879414,0.6796,0.7633,0.0969,17.1951,45.7927,-11.5244
1595879414,0.6542,0.7656,0.1111,15.4268,47.1341,-11.1585
1595879414,0.6332,0.7615,0.1190,13.5976,45.5488,-10.6098
1595879414,0.6177,0.7512,0.1191,11.8293,41.8902,-10.2439
1595879414,0.6137,0.7401,0.1116,10.0610,37.7439,-9.7561
1595879414,0.6119,0.7399,0.1190,9.2073,34.2683,-9.8171
1595879414,0.6081,0.7349,0.1243,8.1098,32.3171,-10.3049
1595879414,0.6179,0.7303,0.1232,6.3415,31.7683,-11.5244
1595879414,0.6285,0.7324,0.1160,5.0000,32.4390,-12.5000
1595879414,0.6407,0.7310,0.1063,4.3902,33.2927,-13.2927
1595879414,0.6509,0.7357,0.1216,5.0000,33.2317,-13.9634
1595879414,0.6361,0.7412,0.1479,5.1220,32.3780,-14.4512
1595879414,0.6302,0.7468,0.1832,4.2683,31.5854,-15.2439
1595879414,0.6349,0.7532,0.2013,2.0122,31.8902,-15.7317
1595879414,0.6392,0.7560,0.2052,-0.6098,32.5000,-15.3659
1595879414,0.6553,0.7545,0.2017,-4.4512,34.0854,-15.4268
1595879414,0.6841,0.7734,0.2145,-8.8415,37.8659,-16.6463
1595879414,0.6964,0.7996,0.2188,-12.3171,44.7561,-18.4756
1595879414,0.6830,0.8076,0.1933,-14.6341,52.1951,-20.4878
1595879414,0.6827,0.8283,0.1681,-14.5122,56.3415,-22.3780
1595879414,0.6749,0.8602,0.1808,-13.1707,54.8781,-24.0244
1595879414,0.6772,0.8647,0.2036,-14.5732,49.1463,-25.1829
1595879414,0.6959,0.8627,0.1998,-18.1098,45.0000,-27.6220
1595879414,0.6896,0.8683,0.1926,-20.9146,46.2195,-29.8171
1595879414,0.6630,0.8648,0.1841,-21.5854,52.5610,-31.7683
1595879414,0.6299,0.8414,0.1887,-21.7683,60.7317,-34.3902
1595879414,0.5760,0.8204,0.2139,-20.3049,66.0976,-36.0366
1595879414,0.5234,0.8136,0.2509,-16.5244,66.3415,-35.9146
1595879414,0.4940,0.8023,0.2899,-13.4146,61.7683,-35.5488
1595879414,0.4774,0.7833,0.3184,-12.0122,54.8171,-35.6098
1595879414,0.4777,0.7604,0.3279,-10.3049,48.1707,-34.8171
1595879414,0.4894,0.7506,0.3367,-8.3537,44.0244,-33.6585
1595879414,0.4769,0.7483,0.3383,-6.5854,41.8293,-32.3780
1595879414,0.4513,0.7525,0.3403,-4.3902,40.2439,-31.1585
1595879414,0.4458,0.7625,0.3445,-1.4024,36.3415,-30.0000
1595879414,0.4504,0.7706,0.3389,0.4878,29.2683,-29.1463
1595879414,0.4724,0.7703,0.3345,1.8902,21.8902,-29.4512
1595879414,0.4708,0.7740,0.3354,3.7805,17.0732,-30.4878
1595879414,0.4517,0.7704,0.3419,6.8902,14.8780,-30.6707
1595879414,0.4481,0.7603,0.3463,8.5976,14.2073,-30.9146
1595879414,0.4354,0.7610,0.3441,9.4512,14.2073,-30.4268
1595879414,0.4155,0.7596,0.3442,10.3659,15.5488,-29.9390
1595879414,0.4292,0.7532,0.3234,10.1829,18.1707,-29.6341
1595879414,0.4874,0.7864,0.2856,10.9146,19.6341,-29.3902
1595879414,0.5361,0.8426,0.2964,13.7805,19.5732,-28.4146
1595879414,0.5399,0.8585,0.3323,14.5122,21.1585,-28.1098
1595879414,0.5274,0.8535,0.3549,13.0488,26.5854,-29.0854
1595879414,0.4778,0.8561,0.3722,11.8293,35.4878,-28.9024
1595879414,0.3951,0.8802,0.3853,13.0488,43.7195,-28.0488
1595879414,0.3420,0.8845,0.3812,13.9634,46.2195,-28.4756
1595879414,0.3188,0.8550,0.3922,11.4024,42.5610,-29.7561
1595879414,0.3100,0.8599,0.3978,8.4146,34.7561,-28.7195
1595879414,0.3229,0.8845,0.3327,7.9268,25.0610,-27.5610
1595879414,0.4259,0.9059,0.2475,8.4146,13.2927,-28.1707
1595879414,0.5417,0.9386,0.2367,10.3659,1.6463,-26.5244
1595879414,0.5542,0.9236,0.2577,10.9146,-2.9268,-25.5488
1595879414,0.5478,0.8974,0.3023,10.9146,4.0854,-29.3293
1595879414,0.5085,0.9215,0.3326,10.8537,20.1829,-31.2195
1595879414,0.4254,0.9519,0.3489,11.8902,38.4146,-29.2073
1595879414,0.3538,0.9517,0.3597,12.8049,49.6951,-27.9268
1595879415,0.3209,0.9452,0.3554,11.5244,51.0366,-27.2561
1595879415,0.3200,0.9449,0.3409,9.6951,46.5244,-24.6951
1595879415,0.3241,0.9327,0.3131,8.5976,40.6707,-22.0732
1595879415,0.3238,0.9101,0.2866,8.0488,34.2683,-21.2195
1595879415,0.3605,0.9075,0.2687,8.2927,29.3293,-20.9756
1595879415,0.4166,0.9196,0.2687,9.0244,27.6220,-19.6951
1595879415,0.4520,0.9315,0.2866,9.9390,29.0854,-18.2927
1595879415,0.4434,0.9393,0.3219,11.0366,33.9024,-18.1098
1595879415,0.4144,0.9362,0.3508,11.4024,39.1463,-17.3780
1595879415,0.3693,0.9217,0.3572,10.4268,43.5976,-15.3049
1595879415,0.3097,0.9166,0.3387,10.3049,45.6098,-13.1707
1595879415,0.2774,0.8975,0.3275,11.1585,45.0000,-12.3171
1595879415,0.2827,0.8801,0.3206,10.7317,42.1951,-12.0122
1595879415,0.2840,0.8741,0.3060,10.6098,38.7195,-11.8902
1595879415,0.2909,0.8679,0.2903,11.4634,35.6707,-12.7439
1595879415,0.3251,0.8858,0.2864,13.7805,31.1585,-14.5122
1595879415,0.3566,0.9119,0.2958,14.9390,24.0244,-14.8780
1595879415,0.3765,0.9145,0.3245,14.6341,16.9512,-15.5488
1595879415,0.3855,0.9299,0.3538,14.4512,13.9024,-16.8293
1595879415,0.3698,0.9444,0.3615,14.3902,14.3902,-16.1585
1595879415,0.3581,0.9505,0.3513,14.0244,15.1220,-15.6098
1595879415,0.3648,0.9525,0.3313,13.9634,15.2439,-16.1585
1595879415,0.3577,0.9457,0.3198,13.1707,15.1829,-15.6707
1595879415,0.3050,0.9380,0.3110,12.8049,16.2195,-14.9390
1595879415,0.2764,0.9442,0.3186,13.7805,15.0610,-16.4634
1595879415,0.2767,0.9507,0.3349,13.1707,11.5854,-17.2561
1595879415,0.2938,0.9536,0.3351,11.1585,6.5854,-16.9512
1595879415,0.3098,0.9533,0.3219,10.2439,3.0488,-17.1341
1595879415,0.3286,0.9634,0.3145,10.8537,1.5854,-17.6220
1595879415,0.3255,0.9775,0.3145,11.7073,0.3049,-17.1951
1595879415,0.3168,0.9761,0.3204,11.1585,-0.1829,-16.7073
1595879415,0.3005,0.9691,0.3270,10.0610,1.3415,-17.2561
1595879415,0.2867,0.9734,0.3342,9.2683,3.9634,-17.1341
1595879415,0.2752,0.9809,0.3334,9.5732,4.7561,-17.1951
1595879415,0.2609,0.9763,0.3289,8.7805,2.6220,-17.3171
1595879415,0.2473,0.9597,0.3367,7.5610,0.9146,-16.8293
1595879415,0.2397,0.9453,0.3406,6.7073,0.3049,-16.5854
1595879415,0.2434,0.9384,0.3372,6.7073,-1.4634,-15.6707
1595879415,0.2526,0.9302,0.3257,6.2195,-4.5732,-14.8171
1595879415,0.2820,0.9252,0.3289,5.6707,-7.0122,-14.2683
1595879415,0.3021,0.9279,0.3291,5.3049,-7.1341,-13.3537
1595879415,0.2700,0.9261,0.3122,5.6098,-6.2195,-12.4390
1595879415,0.1877,0.9551,0.2834,7.1341,-5.1220,-12.5610
1595879415,0.1200,0.9247,0.3152,8.1098,-4.5122,-13.4756
1595879415,0.2338,0.9166,0.3636,7.7439,-0.8537,-18.7805
1595879415,0.4217,0.9942,0.3337,8.8415,-8.2317,-16.9512
1595879415,0.4155,0.9534,0.3084,3.9024,-22.5610,-6.8293
1595879415,0.2894,0.8956,0.3047,3.2927,-18.1707,-8.4756
1595879415,0.2728,0.9580,0.3088,9.1463,2.6220,-14.2683
1595879415,0.3043,0.9986,0.3203,10.7927,10.9146,-12.3780
1595879415,0.2961,0.9738,0.3340,4.8171,6.5854,-9.4512
1595879415,0.2880,0.9727,0.3307,3.1098,5.1220,-10.3049
1595879415,0.2951,0.9913,0.3203,3.5366,6.8902,-10.4268
1595879415,0.3180,1.0027,0.3314,3.1098,6.2195,-9.7561
1595879415,0.3274,0.9971,0.3485,0.0610,3.5366,-9.2683
1595879415,0.3318,1.0048,0.3552,-1.7073,2.8049,-9.2683
1595879415,0.3265,1.0261,0.3066,-1.8902,4.6951,-10.0000
1595879415,0.3187,0.9811,0.2737,-3.1098,8.2927,-10.3659
1595879415,0.2993,0.9518,0.2376,-3.9634,13.0488,-12.2561
1595879415,0.3132,0.9622,0.2401,-1.8902,15.5488,-12.6220
1595879415,0.3467,0.9653,0.2575,-2.5000,13.9634,-11.8293
1595879415,0.3600,0.9624,0.2687,-4.2683,10.7317,-11.2805
1595879415,0.3272,0.9560,0.2883,-4.2683,10.6707,-9.8780
1595879415,0.2902,0.9585,0.2957,-2.1951,12.1341,-8.3537
1595879415,0.2775,0.9733,0.2999,-0.6098,11.0976,-6.7683
1595879415,0.2907,1.0001,0.3137,-0.4878,7.3780,-5.1220
1595879415,0.2355,0.9984,0.2639,0.9146,3.9024,-4.6341
1595879415,0.1224,0.9550,0.2222,6.0976,-0.9146,-6.5854
1595879415,0.1545,0.9684,0.2665,7.8659,-13.0488,-5.5488
1595879415,0.2446,0.9926,0.2927,2.0122,-26.8902,-4.1463
1595879415,0.3264,0.9759,0.3208,-4.0854,-29.8780,-5.1220
1595879415,0.3209,0.9426,0.3279,-6.2805,-20.3049,-3.4756
1595879415,0.2885,0.9478,0.3270,-4.0244,-8.1707,-1.2805
1595879415,0.2659,0.9634,0.3192,-1.3415,0.3049,1.5244
1595879415,0.2518,0.9693,0.3058,-0.8537,1.5854,5.6098
1595879415,0.2667,0.9845,0.2938,-1.0366,-1.5854,7.6220
1595879415,0.2859,0.9977,0.3256,-2.4390,-4.2073,7.3171
1595879415,0.2831,0.9872,0.3328,-4.6951,-1.8902,7.1341
1595879415,0.2749,0.9865,0.3223,-4.6341,2.1951,7.0122
1595879415,0.2699,0.9774,0.3182,-5.5488,3.5976,9.2073
1595879415,0.2955,0.9548,0.3212,-7.7439,7.5000,9.1463
1595879415,0.2983,0.9548,0.3096,-9.8171,14.2073,7.6829
1595879415,0.2534,0.9555,0.3079,-10.0610,21.7683,7.4390
1595879415,0.2186,0.9582,0.3232,-8.2317,25.9146,5.3049
1595879415,0.2090,0.9508,0.3406,-8.2317,22.6220,3.9634
1595879415,0.2209,0.9301,0.3495,-10.4268,13.7195,4.8780
1595879415,0.2415,0.9240,0.3435,-11.7073,4.2683,5.4878
1595879415,0.2655,0.9328,0.3179,-11.1585,-2.1341,5.6707
1595879415,0.2862,0.9501,0.2940,-9.3902,-4.9390,5.9146
1595879415,0.2794,0.9489,0.2911,-8.7805,-4.3293,5.6098
1595879415,0.2668,0.9568,0.3096,-9.2073,-1.5854,3.4146
1595879415,0.2556,0.9717,0.3338,-10.1829,0.6098,2.1951
1595879415,0.2535,0.9787,0.3544,-11.8293,-0.1829,2.2561
1595879415,0.2536,0.9811,0.3611,-13.5976,-3.6585,2.3780
1595879415,0.2511,0.9840,0.3541,-14.8171,-8.2927,2.8049
1595879415,0.2460,0.9902,0.3465,-15.9146,-12.5000,3.1098
1595879415,0.2281,1.0032,0.3297,-16.3415,-16.4634,3.1707
1595879415,0.2218,1.0042,0.2996,-16.5244,-20.3659,3.3537
1595879415,0.2053,1.0277,0.2905,-15.2439,-24.3293,3.2927
1595879415,0.1926,1.0568,0.2942,-12.9268,-31.9512,3.3537
1595879415,0.2278,1.0635,0.3182,-15.6707,-40.8537,3.1098
1595879415,0.2521,1.0618,0.3268,-20.6098,-48.4146,3.3537
1595879415,0.2374,1.0637,0.3135,-23.6585,-50.3049,4.5732
1595879415,0.1826,1.0513,0.3089,-24.8780,-46.3415,5.0610
1595879415,0.1396,1.0285,0.3159,-26.7073,-42.2561,4.7561
1595879415,0.1285,1.0120,0.3088,-29.0244,-41.7073,5.3659
1595879415,0.1263,1.0193,0.2866,-30.0000,-43.3537,7.1341
1595879415,0.1246,1.0179,0.2892,-30.5488,-44.2683,9.0854
1595879415,0.1251,1.0444,0.2925,-31.4634,-44.6341,9.0244
1595879415,0.1299,1.0775,0.2983,-32.4390,-45.3049,7.8049
1595879415,0.1403,1.0783,0.3086,-36.4634,-46.5244,7.0122
1595879415,0.1434,1.0533,0.3135,-39.7561,-48.1098,6.6463
1595879416,0.1241,1.0303,0.3010,-41.1585,-48.7195,6.4024
1595879416,0.1069,1.0367,0.2892,-40.1829,-48.7195,6.5854
1595879416,0.0984,1.0482,0.2770,-39.7561,-49.4512,6.0976
1595879416,0.1133,1.0551,0.2670,-41.0976,-51.7073,4.8171
1595879416,0.1381,1.0453,0.2731,-42.8659,-56.0366,3.2317
1595879416,0.1301,1.0380,0.2682,-43.5366,-59.9390,0.8537
1595879416,0.1164,1.0621,0.2559,-42.1951,-62.1951,-1.6463
1595879416,0.1269,1.0768,0.2455,-42.1341,-64.3902,-3.7805
1595879416,0.1567,1.0738,0.2472,-44.0854,-68.1098,-5.9146
1595879416,0.1733,1.0448,0.2582,-46.8293,-71.0976,-9.3293
1595879416,0.1723,1.0179,0.2663,-48.1707,-72.5000,-13.6585
1595879416,0.1497,0.9927,0.2486,-47.5610,-73.4756,-16.9512
1595879416,0.1055,0.9556,0.2047,-45.9146,-76.7683,-19.6951
1595879416,0.1128,0.9571,0.1906,-41.8293,-84.6341,-23.9024
1595879416,0.1587,0.9678,0.2043,-38.6585,-94.1463,-28.1707
1595879416,0.1973,0.9607,0.1973,-38.4756,-101.7073,-32.1341
1595879416,0.2424,0.9777,0.1774,-36.0976,-105.2439,-37.0732
1595879416,0.2764,0.9817,0.1875,-32.3780,-104.2683,-42.7439
1595879416,0.2764,0.9489,0.2144,-32.1341,-98.7805,-49.6951
1595879416,0.2589,0.9238,0.2340,-31.2805,-91.6463,-56.9512
1595879416,0.2413,0.9127,0.2451,-28.9634,-85.8537,-63.5366
1595879416,0.2297,0.9109,0.2460,-26.3415,-82.6829,-70.0610
1595879416,0.2237,0.9185,0.2377,-23.4146,-82.0122,-77.0122
1595879416,0.2279,0.9225,0.2265,-20.4878,-83.2317,-83.3537
1595879416,0.2369,0.9268,0.2294,-17.5610,-85.9146,-88.9634
1595879416,0.2436,0.9421,0.2320,-15.0000,-89.2683,-94.2683
1595879416,0.2470,0.9565,0.2280,-13.1707,-92.5610,-99.4512
1595879416,0.2479,0.9521,0.2175,-10.6707,-96.2805,-104.2683
1595879416,0.2610,0.9394,0.2103,-7.4390,-101.0366,-108.2927
1595879416,0.2770,0.9280,0.2095,-3.9634,-106.1585,-112.4390
1595879416,0.2966,0.9235,0.2269,-0.4878,-109.6951,-116.2805
1595879416,0.3182,0.9293,0.2547,1.9512,-110.6098,-120.3049
1595879416,0.3386,0.9465,0.2867,3.2927,-108.7195,-124.6341
1595879416,0.3506,0.9672,0.3122,4.0244,-103.7195,-129.0244
1595879416,0.3489,0.9965,0.3209,4.5732,-95.6098,-133.1707
1595879416,0.3413,1.0104,0.3107,3.9024,-85.0610,-136.9512
1595879416,0.3287,1.0167,0.2879,3.2927,-74.2073,-140.0000
1595879416,0.3190,1.0135,0.2645,3.7805,-63.9634,-142.0122
1595879416,0.3179,1.0109,0.2430,5.1220,-54.5732,-142.9878
1595879416,0.3276,1.0102,0.2183,6.5244,-46.0976,-143.1098
1595879416,0.3297,1.0173,0.1981,7.4390,-37.0732,-142.0122
1595879416,0.3438,1.0203,0.1849,7.8659,-28.6585,-139.2683
1595879416,0.3655,1.0095,0.1836,6.9512,-21.0976,-136.0366
1595879416,0.3889,0.9913,0.1945,6.0366,-14.2073,-131.8902
1595879416,0.4003,0.9720,0.2064,5.3659,-6.4634,-126.1585
1595879416,0.3927,0.9550,0.2243,5.1220,2.6220,-119.3293
1595879416,0.3776,0.9387,0.2447,5.3659,11.8902,-111.5244
1595879416,0.3469,0.9205,0.2587,5.6098,20.1220,-102.8659
1595879416,0.2953,0.9034,0.2690,6.1585,26.3415,-93.4756
1595879416,0.2133,0.8807,0.2717,7.1951,29.2073,-84.0244
1595879416,0.1302,0.8602,0.2623,8.9024,27.2561,-75.2439
1595879416,0.0715,0.8547,0.2593,11.2805,19.2073,-67.5000
1595879416,0.0294,0.8491,0.2585,12.1341,5.5488,-60.2439
1595879416,0.0032,0.8457,0.2570,11.5244,-11.0366,-53.4146
1595879416,-0.0021,0.8546,0.2579,10.9146,-30.1220,-47.5610
1595879416,-0.0022,0.8594,0.2643,10.4268,-50.9756,-42.6829
1595879416,0.0078,0.8674,0.2746,9.6341,-72.0122,-38.6585
1595879416,0.0299,0.8738,0.2791,8.4756,-92.5000,-34.9390
1595879416,0.0345,0.8650,0.2792,6.4024,-110.7927,-31.2805
1595879416,0.0333,0.8611,0.2815,5.7927,-127.0732,-28.0488
1595879416,0.0554,0.8657,0.2920,5.9146,-142.6829,-25.7317
1595879416,0.0824,0.8755,0.3005,4.5732,-156.5244,-23.5366
1595879416,0.0987,0.8821,0.3124,2.5610,-166.9512,-21.2805
1595879416,0.1169,0.8853,0.3203,1.4024,-174.0244,-19.2683
1595879416,0.1414,0.8799,0.3305,0.9146,-178.8415,-16.9512
1595879416,0.1742,0.8736,0.3425,0.3659,-181.6463,-14.2073
1595879416,0.2045,0.8661,0.3524,-0.2439,-181.8902,-11.0976
1595879416,0.2205,0.8617,0.3653,-0.6098,-178.4146,-7.9878
1595879416,0.2266,0.8614,0.3826,-0.6707,-171.5854,-5.0610
1595879416,0.2321,0.8672,0.4037,-0.5488,-162.0732,-2.5000
1595879416,0.2232,0.8697,0.4155,-0.8537,-150.7317,-0.3049
1595879416,0.2045,0.8693,0.4216,-1.2805,-137.8049,1.8293
1595879416,0.1929,0.8751,0.4327,-0.5488,-124.8781,3.5366
1595879416,0.1862,0.8836,0.4374,-0.2439,-112.8659,4.8171
1595879416,0.1692,0.8885,0.4426,-0.1829,-101.7073,5.9756
1595879416,0.1554,0.8992,0.4603,0.4268,-91.7683,6.5244
1595879416,0.1562,0.9107,0.4663,1.0976,-83.5366,6.5244
1595879416,0.1562,0.9088,0.4752,0.3659,-76.2805,6.5854
1595879416,0.1536,0.9048,0.4796,0.0610,-69.5732,6.5244
1595879416,0.1523,0.9037,0.4806,0.3659,-63.6585,6.4024
1595879416,0.1511,0.9008,0.4823,0.1220,-58.4146,6.6463
1595879416,0.1564,0.9022,0.4891,-0.3659,-53.9024,7.2561
1595879416,0.1660,0.9134,0.4951,-1.1585,-49.8171,8.1707
1595879416,0.1716,0.9289,0.5024,-2.8659,-45.1829,9.3293
1595879416,0.1734,0.9454,0.5133,-4.3293,-40.4268,10.7317
1595879416,0.1719,0.9521,0.5222,-5.6707,-35.7927,12.3780
1595879416,0.1641,0.9536,0.5204,-7.3780,-31.7073,14.4512
1595879416,0.1538,0.9514,0.5175,-8.4756,-28.9024,16.8902
1595879416,0.1418,0.9579,0.5189,-8.9634,-27.8049,19.3293
1595879416,0.1308,0.9643,0.5191,-9.3902,-28.6585,21.3415
1595879416,0.1235,0.9645,0.5115,-10.4878,-31.4024,22.5610
1595879416,0.1228,0.9594,0.5046,-11.7073,-35.4878,23.3537
1595879416,0.1190,0.9482,0.4916,-12.5000,-40.9146,23.7805
1595879416,0.1194,0.9401,0.4790,-12.5610,-48.4146,23.5976
1595879416,0.1392,0.9431,0.4669,-13.2927,-57.9268,23.1098
1595879416,0.1770,0.9575,0.4594,-16.0976,-67.6829,22.1341
1595879416,0.2190,0.9819,0.4482,-20.1829,-75.7927,20.6098
1595879416,0.2481,0.9921,0.4251,-24.5122,-81.8902,18.9634
1595879417,0.2654,0.9891,0.4034,-27.9878,-86.7073,17.5000
1595879417,0.2917,0.9813,0.3867,-30.0610,-91.5244,15.9146
1595879417,0.3260,0.9674,0.3686,-32.1951,-96.3415,14.8780
1595879417,0.3612,0.9407,0.3542,-34.4512,-100.6707,14.2683
1595879417,0.3886,0.9130,0.3381,-35.4268,-103.4756,13.7195
1595879417,0.4085,0.9021,0.3275,-34.6951,-104.8171,12.9268
1595879417,0.4441,0.9071,0.3295,-32.9878,-104.9390,12.0122
1595879417,0.4860,0.9169,0.3308,-31.5244,-103.4146,10.7317
1595879417,0.5273,0.9249,0.3330,-30.4878,-100.0000,9.8780
1595879417,0.5563,0.9312,0.3409,-28.9024,-94.4512,9.3293
1595879417,0.5814,0.9319,0.3536,-26.4634,-87.5000,8.7195
1595879417,0.6056,0.9213,0.3605,-24.3293,-79.8781,8.1707
1595879417,0.6181,0.9084,0.3710,-22.4390,-72.0122,7.6220
1595879417,0.6245,0.8959,0.3804,-20.4878,-63.7805,7.3780
1595879417,0.6240,0.8828,0.3795,-18.2927,-55.9756,7.5610
1595879417,0.6190,0.8687,0.3713,-16.6463,-49.0244,8.4146
1595879417,0.6129,0.8480,0.3634,-14.8780,-43.4146,10.4878
1595879417,0.6040,0.8196,0.3503,-12.9878,-39.4512,13.6585
1595879417,0.5865,0.7911,0.3356,-11.3415,-36.5854,17.8659
1595879417,0.5712,0.7634,0.3179,-9.5732,-34.3293,22.8659
1595879417,0.5588,0.7348,0.3018,-7.9878,-31.8293,27.9268
1595879417,0.5494,0.7118,0.2910,-6.1585,-28.3537,32.9268
1595879417,0.5488,0.6905,0.2816,-4.3902,-24.0244,37.5000
1595879417,0.5568,0.6753,0.2758,-2.5000,-18.5366,41.7683
1595879417,0.5704,0.6700,0.2858,-0.4878,-12.3171,45.5488
1595879417,0.5744,0.6779,0.2963,1.5244,-6.0366,48.7195
1595879417,0.5715,0.7008,0.3170,3.4146,0.0000,51.0366
1595879417,0.5782,0.7319,0.3383,4.5122,4.8780,52.3171
1595879417,0.5842,0.7559,0.3458,4.0244,8.5366,52.5610
1595879417,0.5842,0.7677,0.3452,3.3537,10.4878,52.4390
1595879417,0.5826,0.7678,0.3375,2.9878,11.0976,51.9512
1595879417,0.5867,0.7697,0.3275,2.3780,10.6707,50.9146
1595879417,0.5941,0.7719,0.3209,1.2805,9.5732,49.5122
1595879417,0.6010,0.7700,0.3125,-0.4268,8.5976,47.4390
1595879417,0.6083,0.7669,0.3076,-2.8049,8.7805,45.0000
1595879417,0.6130,0.7684,0.3031,-4.4512,9.6951,42.2561
1595879417,0.6197,0.7780,0.3075,-5.6707,11.2805,39.2073
1595879417,0.6296,0.7979,0.3285,-6.8293,13.4146,36.4024
1595879417,0.6329,0.8144,0.3478,-8.6585,16.6463,33.7805
1595879417,0.6205,0.8236,0.3689,-10.4878,21.4024,31.7073
1595879417,0.6121,0.8300,0.3858,-11.4634,26.7683,30.3049
1595879417,0.6051,0.8388,0.3977,-11.8902,31.8902,29.2683
1595879417,0.5927,0.8471,0.4094,-11.9512,36.7683,29.0244
1595879417,0.5707,0.8534,0.4174,-11.5244,41.3415,29.0854
1595879417,0.5490,0.8592,0.4285,-10.6098,45.3049,29.1463
1595879417,0.5245,0.8624,0.4436,-9.6951,47.8049,29.4512
1595879417,0.4975,0.8560,0.4471,-9.0854,49.1463,29.8780
1595879417,0.4681,0.8533,0.4500,-8.2927,49.7561,30.6098
1595879417,0.4402,0.8552,0.4685,-6.5244,49.3902,31.4024
1595879417,0.4129,0.8481,0.4798,-5.0610,48.0488,31.5244
1595879417,0.3852,0.8385,0.4885,-4.5732,45.9146,31.7073
1595879417,0.3639,0.8340,0.4958,-3.6585,42.5000,31.5244
1595879417,0.3502,0.8302,0.5040,-2.5610,38.4756,30.7927
1595879417,0.3365,0.8230,0.5082,-2.0122,34.6341,29.4512
1595879417,0.3215,0.8242,0.5092,-1.5244,31.3415,27.6220
1595879417,0.3030,0.8403,0.5110,-0.7317,25.2439,22.3780
1595879417,0.3028,0.8453,0.5083,-0.6707,21.8293,18.4756
1595879417,0.3054,0.8470,0.5005,-0.3659,18.5366,13.9634
1595879417,0.3130,0.8439,0.4982,0.3049,15.3659,9.2073
1595879417,0.3132,0.8422,0.5051,0.7317,12.9268,4.2683
1595879417,0.3107,0.8503,0.4874,0.3049,9.1463,-7.0732
1595879417,0.3142,0.8832,0.4940,1.5854,6.2805,-13.1707
1595879417,0.3297,0.9218,0.5169,4.5732,0.0000,-19.9390
1595879417,0.3298,0.9272,0.5173,3.1707,-5.7927,-26.2195
1595879417,0.3122,0.9111,0.5027,-1.4024,-6.9512,-32.8049
1595879417,0.2722,0.9037,0.4786,-6.2805,-3.6585,-40.1829
1595879417,0.2284,0.9310,0.4598,-9.3902,1.5244,-46.8902
1595879418,0.1968,0.9568,0.4454,-10.9756,4.8780,-54.9390
1595879418,0.1793,0.9660,0.4412,-12.3171,5.1220,-64.1463
1595879418,0.1766,0.9568,0.4353,-12.6829,2.4390,-72.3171
1595879418,0.1804,0.9467,0.4287,-11.9512,-2.1951,-78.9024
1595879418,0.1848,0.9570,0.4254,-9.6951,-8.4146,-84.5732
1595879418,0.2159,1.0040,0.4178,-6.0976,-24.1463,-97.2561
1595879418,0.2371,1.0234,0.4216,-4.8171,-31.9512,-103.8415
1595879418,0.2731,1.0242,0.4479,1.0976,-48.6585,-113.7805
1595879418,0.2950,0.9943,0.4709,2.8049,-56.4634,-116.1585
1595879418,0.3216,0.9179,0.4254,1.7073,-61.6463,-109.1463
1595879418,0.2923,0.9227,0.3926,-5.0610,-41.3415,-83.4756
1595879418,0.2018,0.8916,0.3522,-6.3415,-17.5000,-69.9390
1595879418,0.2168,0.8839,0.3410,-7.6220,-14.4512,-63.9024
1595879418,0.2365,0.8763,0.3366,-9.2683,-13.5976,-57.5000
1595879418,0.2419,0.8745,0.3326,-8.5366,-16.1585,-45.5488
1595879418,0.2374,0.8670,0.3375,-7.9268,-21.0366,-41.5854
1595879418,0.2349,0.8420,0.3284,-8.9634,-27.3780,-38.9634
1595879418,0.2324,0.8275,0.3318,-9.7561,-34.0854,-36.6463
1595879418,0.2527,0.8220,0.3455,-9.1463,-47.8049,-32.8659
1595879418,0.2600,0.8120,0.3444,-9.5732,-51.8293,-31.2805
1595879418,0.2845,0.8027,0.3249,-6.4024,-54.0244,-22.5610
1595879418,0.2894,0.7980,0.3286,-4.9390,-52.7439,-20.2439
1595879418,0.2867,0.7808,0.3387,-2.0732,-48.2927,-16.1585
1595879418,0.2965,0.7986,0.3812,3.5976,-38.7805,-12.1341
1595879418,0.2775,0.7825,0.3979,6.0366,-28.4146,-11.6463
1595879418,0.2668,0.7532,0.4150,9.0854,-18.7195,-10.4878
1595879418,0.2581,0.7299,0.4121,11.2195,-12.7439,-9.3902
1595879418,0.2548,0.7329,0.4245,13.4756,-7.0732,-7.6220
1595879418,0.2380,0.7435,0.4414,15.1220,-2.6829,-6.4024
1595879418,0.2333,0.7510,0.4510,15.5488,-0.7927,-5.8537
1595879418,0.1953,0.9204,0.4828,9.8171,-0.8537,-1.4024
1595879418,0.1812,0.9255,0.4612,8.5366,-5.9146,-0.6098
1595879418,0.1631,0.9200,0.4390,7.1341,-12.0732,0.7317
1595879418,0.1431,0.9124,0.4116,5.6098,-18.7195,2.5610
1595879418,0.1826,1.0156,0.3719,2.7439,-39.2683,6.8902
1595879418,0.2113,1.0852,0.3834,2.9878,-43.4146,6.5854
1595879418,0.2514,1.2888,0.4623,12.1341,-40.1220,-3.7805
1595879418,0.2546,1.2696,0.4765,13.5976,-38.8415,-6.0976
1595879418,0.2575,1.1367,0.4796,13.5976,-38.4146,-6.3415
1595879418,0.2545,1.0282,0.4576,13.1707,-35.9756,-2.1951
1595879418,0.2388,0.9822,0.4451,12.7439,-33.8415,0.6098
1595879418,0.1870,0.9253,0.4156,13.1707,-26.8293,8.3537
1595879418,0.1031,1.0207,0.3394,11.4024,-10.5488,20.0610
1595879418,0.0920,1.0989,0.3118,8.4146,-6.8902,18.9024
1595879418,0.0659,1.1671,0.2925,2.5610,-7.6220,12.8049
1595879418,0.0162,1.1488,0.2716,-6.4024,-14.3902,4.8171
1595879418,0.0112,1.0042,0.2547,-16.2805,-56.2805,-8.4756
1595879418,0.0268,0.9962,0.2540,-15.9756,-66.0366,-10.0610
1595879418,0.0129,0.9932,0.2258,-9.2683,-81.5854,-11.8902
1595879418,0.0174,1.0043,0.2128,-7.6220,-83.9024,-13.0488
1595879418,0.0350,1.0128,0.1996,-7.3780,-85.1220,-14.5732
1595879418,0.0639,1.0353,0.1823,-8.1098,-80.9756,-19.9390
1595879418,0.0730,1.0421,0.1758,-8.9024,-75.8537,-23.4756
1595879418,0.0745,1.0362,0.1697,-10.3049,-69.6341,-27.5610
1595879418,0.0766,1.0258,0.1665,-12.9878,-63.1098,-32.2561
1595879418,0.0905,1.0203,0.1713,-16.0366,-56.8902,-36.7073
1595879418,0.0904,1.0231,0.1772,-18.7195,-50.8537,-40.5488
1595879418,0.0872,1.0376,0.1777,-20.8537,-44.1463,-44.0854
1595879418,0.0841,1.0670,0.1768,-23.1098,-37.6220,-47.7439
1595879418,0.0764,1.0941,0.1701,-25.5488,-32.1951,-51.1585
1595879418,0.0738,1.1196,0.1630,-27.6220,-28.4756,-53.7805
1595879418,0.0797,1.1398,0.1583,-29.4512,-26.2805,-55.6098
1595879418,0.0805,1.1508,0.1589,-31.8902,-24.7561,-56.9512
1595879418,0.0705,1.1544,0.1516,-34.3902,-23.7195,-57.7439
1595879418,0.0519,1.1477,0.1386,-36.7073,-24.0244,-58.2927
1595879418,0.0316,1.1363,0.1274,-38.7195,-26.0366,-58.3537
1595879418,0.0071,1.1206,0.1133,-40.0610,-30.5488,-58.1707
1595879418,-0.0111,1.1053,0.0944,-41.4024,-38.0488,-57.9268
1595879419,-0.0162,1.1039,0.0776,-42.3780,-47.6220,-57.3171
1595879419,-0.0029,1.1191,0.0695,-42.6829,-57.8659,-56.9512
1595879419,0.0385,1.1245,0.0762,-41.9512,-82.9878,-59.7561
1595879419,0.0675,1.1294,0.0800,-40.7927,-89.5732,-62.0732
1595879419,0.0934,1.1362,0.0910,-39.3293,-93.9634,-64.7561
1595879419,0.1209,1.1426,0.1082,-37.0732,-95.9756,-67.9268
1595879419,0.1510,1.1425,0.1268,-34.8780,-95.3049,-71.5854
1595879419,0.1719,1.1191,0.1453,-32.7439,-92.1951,-75.0000
1595879419,0.1868,1.0704,0.1599,-30.1829,-87.1951,-78.0488
1595879419,0.2061,1.0249,0.1873,-26.5854,-80.4878,-80.4268
1595879419,0.2153,0.9894,0.2189,-22.8659,-72.1951,-82.1951
1595879419,0.2187,0.9504,0.2355,-19.3902,-62.1341,-83.9024
1595879419,0.2247,0.9170,0.2462,-16.0976,-50.9146,-85.6707
1595879419,0.2289,0.8949,0.2747,-12.0732,-40.1220,-86.5854
1595879419,0.2372,0.8759,0.3018,-8.2317,-29.4512,-87.0122
1595879419,0.2442,0.8599,0.3261,-5.1220,-17.9268,-87.5000
1595879419,0.2458,0.8445,0.3468,-2.3171,-6.1585,-87.8659
1595879419,0.2406,0.8369,0.3633,0.6098,5.4878,-87.9878
1595879419,0.2266,0.8301,0.3741,3.2927,16.4024,-87.8659
1595879419,0.2117,0.8218,0.3843,6.2195,25.7927,-87.5610
1595879419,0.2017,0.8256,0.3968,9.0854,32.9878,-86.7683
1595879419,0.1858,0.8297,0.4010,11.2805,37.8659,-85.6707
1595879419,0.1703,0.8291,0.4052,13.0488,40.7317,-84.5122
1595879419,0.1517,0.8320,0.4097,15.0000,41.4634,-83.2317
1595879419,0.1367,0.8358,0.4203,17.2561,40.0610,-81.5244
1595879419,0.1214,0.8357,0.4315,19.0244,36.4634,-79.8171
1595879419,0.1052,0.8373,0.4404,20.0610,31.5244,-77.6829
1595879419,0.0915,0.8453,0.4500,21.2805,25.2439,-74.9390
1595879419,0.0824,0.8487,0.4601,22.6829,17.3780,-72.0732
1595879419,0.0753,0.8394,0.4656,24.0854,8.0488,-68.7805
1595879419,0.0739,0.8260,0.4691,25.3659,-2.1341,-64.8171
1595879419,0.0775,0.8234,0.4724,26.4634,-12.3171,-60.1220
1595879419,0.0859,0.8329,0.4857,27.1341,-21.9512,-55.1829
1595879419,0.1022,0.8361,0.5011,27.0122,-30.3049,-50.7317
1595879419,0.1219,0.8391,0.5151,26.0366,-36.4024,-46.3415
1595879419,0.1292,0.8362,0.5280,25.1220,-39.3902,-41.3415
1595879419,0.1206,0.8304,0.5392,24.7561,-39.6341,-36.4634
1595879419,0.1130,0.8264,0.5524,24.6951,-38.5976,-31.4634
1595879419,0.1132,0.8289,0.5598,23.8415,-37.0122,-26.2195
1595879419,0.1155,0.8375,0.5688,22.7439,-34.8780,-21.0976
1595879419,0.1099,0.8414,0.5719,20.9146,-31.8902,-16.4024
1595879419,0.0938,0.8436,0.5687,18.9634,-27.5610,-12.0122
1595879419,0.0870,0.8556,0.5742,17.8659,-22.9878,-7.9878
1595879419,0.0848,0.8676,0.5822,16.6463,-19.6951,-4.1463
1595879419,0.0716,0.8677,0.5841,14.3902,-17.8049,-0.7317
1595879419,0.0526,0.8614,0.5828,12.3171,-15.8537,2.4390
1595879419,0.0241,0.8591,0.5794,10.7317,-13.1707,6.0366
1595879419,0.0007,0.8611,0.5767,9.5732,-10.1220,9.3902
1595879419,-0.0130,0.8613,0.5735,8.2927,-8.1098,12.5610
1595879419,-0.0196,0.8647,0.5725,6.4024,-7.0732,15.5488
1595879419,-0.0300,0.8704,0.5678,4.2073,-6.2195,18.4146
1595879419,-0.0386,0.8778,0.5637,2.0122,-4.7561,21.0976
1595879419,-0.0512,0.8771,0.5581,0.1829,-3.8415,22.9878
1595879419,-0.0733,0.8801,0.5504,-1.3415,-3.2927,25.1829
1595879419,-0.0879,0.8876,0.5449,-2.6220,-3.1098,27.4390
1595879419,-0.0967,0.9013,0.5369,-4.3293,-3.6585,28.5976
1595879419,-0.1097,0.9127,0.5254,-6.5244,-4.8171,29.5732
1595879419,-0.1166,0.9301,0.4963,-9.5732,-9.6951,31.4634
1595879419,-0.1146,0.9503,0.4800,-9.0854,-16.0976,32.6220
1595879419,-0.0989,0.9610,0.4695,-10.0000,-24.6951,33.5976
1595879419,-0.0792,0.9560,0.4575,-12.2561,-33.1098,32.9878
1595879419,-0.0737,0.9436,0.4453,-14.3902,-39.2683,31.6463
1595879419,-0.0845,0.9382,0.4344,-15.7927,-41.7073,31.0366
1595879419,-0.0901,0.9382,0.4291,-16.5244,-41.6463,30.1829
1595879419,-0.0877,0.9367,0.4243,-17.3171,-41.3415,28.6585
1595879419,-0.0831,0.9285,0.4175,-17.9878,-40.7317,27.8659
1595879419,-0.0745,0.9221,0.4111,-17.9878,-39.5732,27.7439
1595879419,-0.0611,0.9300,0.4023,-17.8049,-37.7439,27.6829
1595879419,-0.0534,0.9354,0.3941,-18.0488,-35.0000,27.5000
1595879419,-0.0443,0.9388,0.3880,-17.8659,-31.7683,27.0122
1595879419,-0.0323,0.9479,0.3841,-17.4390,-28.0488,26.2805
1595879419,-0.0303,0.9551,0.3793,-16.8293,-23.8415,25.4878
1595879419,-0.0365,0.9505,0.3843,-16.1585,-19.9390,24.0244
1595879419,-0.0242,0.9452,0.3885,-15.2439,-16.4634,22.2561
1595879419,-0.0153,0.9449,0.3895,-14.5732,-13.4146,20.6098
1595879419,-0.0082,0.9430,0.3928,-13.2927,-10.1220,19.2683
1595879419,0.0010,0.9416,0.3958,-11.8293,-6.4024,17.6220
1595879419,0.0057,0.9462,0.3950,-10.7927,-2.3171,15.8537
1595879419,0.0034,0.9480,0.3932,-9.9390,1.8293,14.2683
1595879419,-0.0002,0.9485,0.3931,-8.8415,5.7927,12.6220
1595879419,-0.0042,0.9517,0.3946,-8.0488,9.1463,11.2805
1595879419,-0.0045,0.9533,0.3962,-7.6220,11.8902,10.2439
1595879419,-0.0099,0.9447,0.3962,-7.7439,14.5732,9.3293
1595879419,-0.0210,0.9464,0.3970,-7.6220,17.6829,8.3537
1595879419,-0.0298,0.9497,0.3937,-7.3171,19.9390,7.3171
1595879419,-0.0324,0.9466,0.3879,-7.2561,20.4268,6.0366
1595879419,-0.0336,0.9429,0.3876,-7.1341,19.5122,5.0000
1595879419,-0.0394,0.9313,0.3839,-7.3780,18.0488,4.1463
1595879419,-0.0409,0.9240,0.3766,-6.9512,16.4634,3.2317
1595879419,-0.0372,0.9243,0.3724,-5.9146,14.4512,2.5610
1595879419,-0.0244,0.9178,0.3766,-4.7561,11.3415,1.6463
1595879419,-0.0023,0.9073,0.3891,-4.0244,8.0488,0.7927
1595879419,0.0231,0.9019,0.4017,-3.7195,5.4268,0.0610
1595879419,0.0441,0.9000,0.4115,-3.4146,4.8171,-0.4268
1595879419,0.0530,0.9010,0.4127,-2.6829,6.3415,-0.7317
1595879419,0.0587,0.9056,0.4133,-1.6463,9.0854,-1.0976
1595879419,0.0621,0.9082,0.4156,-0.7317,11.5854,-1.2195
1595879420,0.0671,0.8992,0.4137,-0.6098,13.4756,-1.7073
1595879420,0.0762,0.8903,0.4168,-0.6707,15.2439,-2.0122
1595879420,0.0854,0.8886,0.4172,-0.4268,17.5000,-1.8902
1595879420,0.0832,0.8881,0.4177,-0.1829,20.3659,-2.0732
1595879420,0.0842,0.8937,0.4204,0.8537,23.5366,-2.1951
1595879420,0.0867,0.8965,0.4242,1.2195,25.7317,-2.1951
1595879420,0.0781,0.9000,0.4248,1.2805,27.4390,-1.8293
1595879420,0.0798,0.9039,0.4327,2.0732,28.5976,-1.6463
1595879420,0.0869,0.9069,0.4409,2.1341,28.8415,-1.2805
1595879420,0.0900,0.9093,0.4442,1.4024,29.4512,-0.6098
1595879420,0.0862,0.9102,0.4484,1.1585,30.5488,0.3659
1595879420,0.0819,0.9102,0.4513,1.2195,31.4024,1.4634
1595879420,0.0820,0.9155,0.4545,1.0976,31.9512,2.6220
1595879420,0.0726,0.9232,0.4543,0.6707,32.2561,3.9634
1595879420,0.0610,0.9303,0.4580,-0.0610,32.5000,5.1829
1595879420,0.0488,0.9246,0.4559,-0.9146,31.8902,6.0976
1595879420,0.0346,0.9186,0.4573,-1.6463,29.8171,7.0732
1595879420,0.0237,0.9173,0.4591,-1.9512,26.8902,8.4146
1595879420,0.0192,0.9161,0.4643,-2.4390,22.9878,9.0244
1595879420,0.0181,0.9189,0.4661,-2.9878,18.4756,9.6951
1595879420,0.0194,0.9241,0.4683,-3.4146,14.2683,10.7317
1595879420,0.0209,0.9280,0.4705,-3.6585,10.9756,11.5244
1595879420,0.0252,0.9285,0.4713,-4.2683,7.9878,12.3171
1595879420,0.0265,0.9255,0.4672,-5.4878,5.6098,13.4146
1595879420,0.0266,0.9194,0.4613,-6.4024,4.0854,14.5122
1595879420,0.0242,0.9189,0.4575,-7.0732,3.2317,15.5488
1595879420,0.0278,0.9183,0.4545,-7.8049,2.7439,16.1585
1595879420,0.0215,0.9192,0.4529,-8.6585,2.4390,16.5244
1595879420,0.0189,0.9241,0.4525,-9.1463,2.4390,16.8293
1595879420,0.0217,0.9273,0.4527,-9.6341,2.5610,17.2561
1595879420,0.0284,0.9264,0.4520,-10.0610,2.8659,17.7439
1595879420,0.0378,0.9301,0.4508,-10.5488,3.3537,18.4756
1595879420,0.0528,0.9342,0.4503,-10.7927,4.2683,19.1463
1595879420,0.0662,0.9381,0.4512,-11.2805,5.7317,20.0000
1595879420,0.0790,0.9449,0.4539,-11.7073,7.9268,21.0976
1595879420,0.0877,0.9475,0.4547,-11.8293,10.1220,22.4390
1595879420,0.0971,0.9476,0.4546,-12.0122,12.1341,24.2073
1595879420,0.1062,0.9479,0.4518,-12.1951,13.9024,26.5244
1595879420,0.1229,0.9490,0.4535,-11.7683,16.6463,32.1341
1595879420,0.1296,0.9465,0.4615,-12.0122,17.8049,34.8780
1595879420,0.1344,0.9381,0.4661,-12.3780,19.3293,37.7439
1595879420,0.1345,0.9299,0.4691,-12.0732,20.8537,40.5488
1595879420,0.1359,0.9208,0.4698,-11.5244,22.0122,43.3537
1595879420,0.1414,0.9156,0.4693,-11.4024,22.7439,45.7927
1595879420,0.1462,0.9127,0.4673,-11.4024,23.3537,47.8659
1595879420,0.1481,0.9088,0.4628,-11.2805,23.8415,49.6951
1595879420,0.1481,0.8974,0.4610,-11.4024,24.0854,50.8537
1595879420,0.1465,0.8815,0.4580,-11.7683,23.6585,51.8293
1595879420,0.1470,0.8710,0.4563,-11.6463,22.9878,52.6220
1595879420,0.1452,0.8604,0.4545,-11.3415,22.4390,52.9878
1595879420,0.1426,0.8517,0.4543,-10.8537,21.8902,53.0488
1595879420,0.1437,0.8423,0.4539,-9.9390,20.5488,52.7439
1595879420,0.1476,0.8352,0.4557,-8.9024,18.5366,52.4390
1595879420,0.1628,0.8351,0.4600,-8.0488,16.4024,51.9512
1595879420,0.1945,0.8389,0.4705,-7.3780,14.7561,51.2805
1595879420,0.2366,0.8466,0.4863,-7.1951,14.5122,50.7927
1595879420,0.2892,0.8580,0.4983,-7.4390,15.9146,50.6098
1595879420,0.3300,0.8692,0.5054,-7.8049,19.6341,50.8537
1595879420,0.3511,0.8848,0.5084,-7.9268,25.6707,51.8293
1595879420,0.3541,0.9008,0.5013,-7.7439,32.8049,53.1098
1595879420,0.3530,0.9016,0.4968,-7.3780,39.1463,54.8781
1595879420,0.3636,0.8990,0.4930,-6.9512,43.9634,57.3171
1595879420,0.3830,0.9058,0.4929,-6.7073,47.3781,60.6707
1595879420,0.4026,0.9094,0.4898,-6.5854,50.4878,64.5122
1595879420,0.4009,0.9069,0.4948,-6.3415,54.3902,69.8781
1595879420,0.3947,0.8934,0.5012,-4.8780,56.8293,77.1951
1595879420,0.4344,0.8095,0.5055,-1.7073,46.8902,96.8293
1595879420,0.4766,0.7839,0.5078,0.2439,40.6098,101.7073
1595879420,0.5591,0.7290,0.4699,6.1585,30.5488,109.7561
1595879420,0.5899,0.7059,0.4404,10.2439,27.5000,114.2683
1595879420,0.6185,0.6795,0.4257,13.2317,27.9878,118.7805
1595879420,0.6422,0.6499,0.4175,15.6098,31.0366,123.5366
1595879420,0.6648,0.6283,0.4006,17.4390,36.0976,128.1098
1595879420,0.6966,0.6122,0.3375,23.2927,47.3781,135.8537
1595879420,0.7370,0.6153,0.3301,29.3293,50.0000,139.5122
1595879420,0.7639,0.6071,0.3226,33.2317,53.4146,142.8049
1595879420,0.7347,0.5951,0.3297,40.0000,66.3415,148.4146
1595879420,0.7050,0.5889,0.3207,42.8049,73.2927,150.5488
1595879420,0.6860,0.5835,0.3073,45.3659,78.9024,152.3171
1595879420,0.6745,0.5894,0.3096,48.9634,84.8781,154.2683
1595879420,0.6684,0.5926,0.2972,52.2561,90.3659,156.3415
1595879420,0.6705,0.5955,0.2910,54.6341,94.3902,158.2927
1595879420,0.6817,0.6155,0.2979,58.5366,94.8171,160.2439
1595879420,0.6994,0.6340,0.3093,62.8659,92.7439,161.5854
1595879420,0.7109,0.6439,0.3190,65.1220,91.9512,161.5854
1595879420,0.7037,0.6622,0.3287,66.2805,94.8781,160.4878
1595879420,0.6787,0.6706,0.3253,66.7683,101.0366,159.2683
1595879420,0.6439,0.6761,0.3206,67.5000,107.8049,157.9268
1595879420,0.6211,0.6674,0.2905,68.7805,112.5000,155.7927
1595879420,0.5899,0.6541,0.2509,70.4268,114.3293,153.2317
1595879420,0.5985,0.6710,0.2299,75.5488,110.8537,150.9146
1595879420,0.6562,0.7064,0.2359,79.6951,105.3049,147.2561
1595879420,0.7082,0.7153,0.2548,79.3902,103.2317,143.2927
1595879420,0.7268,0.7156,0.2834,75.9146,107.3171,138.1098
1595879420,0.6740,0.7132,0.3034,74.5122,118.4146,132.5000
1595879420,0.5737,0.6981,0.3265,73.4756,130.6707,127.1341
1595879421,0.5137,0.6799,0.3487,73.0488,135.7317,121.1585
1595879421,0.5331,0.6810,0.3564,72.7439,131.8293,115.7317
1595879421,0.5873,0.7032,0.3636,72.3171,122.9268,112.2561
1595879421,0.6214,0.7144,0.3856,70.6098,116.0366,108.4146
1595879421,0.6191,0.7251,0.3882,67.9268,115.3659,101.2805
1595879421,0.5606,0.7358,0.3831,65.3659,120.5488,93.3537
1595879421,0.5028,0.7454,0.3884,63.0488,126.5244,86.2195
1595879421,0.4812,0.7615,0.4019,60.6098,128.9024,78.7195
1595879421,0.4644,0.7598,0.4113,56.5854,127.0122,71.6463
1595879421,0.4645,0.7595,0.4080,52.8659,122.5610,65.6707
1595879421,0.4712,0.7767,0.4028,51.0976,116.7683,60.1220
1595879421,0.4739,0.7974,0.4095,50.1220,110.0000,54.5122
1595879421,0.4857,0.8100,0.4016,46.8293,104.7561,48.3537
1595879421,0.4885,0.8044,0.4024,42.0122,103.5976,41.4634
1595879421,0.4928,0.8141,0.4024,38.7195,105.7927,33.3537
1595879421,0.4619,0.8261,0.4030,36.5244,111.7683,25.9756
1595879421,0.3966,0.8353,0.4100,34.5122,120.9146,18.7195
1595879421,0.3239,0.8865,0.4214,33.1098,130.8537,4.8171
1595879421,0.3543,0.9017,0.4244,31.7683,126.0976,0.5488
1595879421,0.3418,0.9158,0.4197,31.5244,117.9878,-3.0488
1595879421,0.3138,0.9379,0.3998,33.5976,109.4512,-7.3780
1595879421,0.2924,0.9552,0.3962,34.3293,102.8049,-13.2927
1595879421,0.2698,0.9688,0.4141,33.2317,100.0610,-19.2073
1595879421,0.2580,0.9995,0.4463,32.8659,99.3293,-24.2683
1595879421,0.2608,1.0361,0.4708,33.4756,97.8049,-28.1098
1595879421,0.2772,1.0485,0.4680,33.4146,95.9756,-30.1220
1595879421,0.3061,1.0640,0.4667,35.5488,94.0854,-30.6098
1595879421,0.3108,1.0784,0.4617,39.0854,90.8537,-30.2439
1595879421,0.2672,1.0703,0.4479,41.2195,87.3781,-29.3293
1595879421,0.2269,1.0704,0.4530,43.2317,84.2683,-28.5976
1595879421,0.1866,1.0718,0.4506,44.6341,80.9146,-26.8902
1595879421,0.1268,1.0515,0.4352,45.6707,76.6463,-25.3659
1595879421,0.1398,1.0341,0.4104,48.4756,72.3781,-24.3293
1595879421,0.2134,1.0361,0.4043,51.7073,69.1463,-19.8780
1595879421,0.2395,1.0266,0.4203,52.6220,66.8902,-14.6341
1595879421,0.1572,1.0041,0.4552,52.1341,70.0610,-13.1098
1595879421,0.0660,1.0025,0.4952,52.0732,75.0610,-13.1098
1595879421,0.0803,1.0188,0.5298,50.3049,72.8659,-12.6829
1595879421,0.1276,1.0056,0.5472,46.7683,64.6341,-12.0732
1595879421,0.1207,0.9816,0.5517,44.6341,58.6585,-10.7317
1595879421,0.0640,0.9626,0.5123,45.5488,56.5854,-8.2317
1595879421,0.0068,0.9957,0.6312,36.7073,49.2073,-6.4024
1595879421,0.0591,1.0142,0.6411,22.1951,26.9512,-5.7927
1595879421,0.3578,1.1396,0.7315,9.4512,-18.5366,10.3049
1595879421,0.3223,1.0146,0.7450,0.4268,-29.7561,12.7439
1595879421,0.1901,0.9257,0.7281,-1.0366,-19.5122,13.2927
1595879421,-0.0590,0.7976,0.5949,1.2805,4.2683,4.0244
1595879421,0.0066,0.7940,0.5729,4.0244,-29.2683,-5.3049
1595879421,0.1729,0.7729,0.6498,2.8049,-29.1463,-17.3171
1595879421,0.2907,0.7766,0.5412,5.7927,-42.8049,-10.1220
1595879421,0.3522,0.8318,0.5598,-2.9878,3.9634,8.0488
1595879421,0.0833,0.7799,0.4969,-1.4024,3.0488,12.6220
1595879421,0.1110,0.8080,0.5018,1.7683,-5.6707,10.0610
1595879421,0.1577,0.8538,0.5707,-1.7683,-17.8659,4.5122
1595879421,0.1311,0.8762,0.5761,-5.7317,-26.4634,-2.1341
1595879421,0.3464,1.0338,0.7533,-18.6585,-94.8781,3.3537
1595879421,0.3618,0.9936,0.6658,-30.6098,-138.4146,20.6098
1595879421,0.4776,0.8564,0.6335,-44.6951,-193.8415,44.0244
1595879421,0.4866,0.7937,0.6022,-46.0976,-196.4634,49.8171
1595879421,0.6481,0.6838,0.4949,-47.0732,-190.9756,62.8049
1595879422,0.7164,0.6207,0.4634,-46.0976,-184.0854,68.7805
1595879422,0.6788,0.5474,0.3871,-35.0610,-148.4146,74.9390
1595879422,0.6940,0.5020,0.2746,-27.3780,-127.8659,71.6463
1595879422,0.7714,0.5364,0.2462,-16.4634,-110.4268,68.5976
1595879422,0.8498,0.6099,0.3364,-4.3293,-98.7195,68.6585
1595879422,0.8016,0.5971,0.3933,-2.1951,-80.8537,63.9024
1595879422,0.6561,0.5789,0.4524,-3.0488,-47.3781,52.4390
1595879422,0.5493,0.6279,0.5065,-3.5976,-3.4146,41.4024
1595879422,0.4881,0.6815,0.5906,-7.1341,36.7073,33.2927
1595879422,0.4235,0.7219,0.6626,-14.6341,67.5610,26.8902
1595879422,0.3402,0.7262,0.6115,-24.6951,95.7927,21.7073
1595879422,0.2057,0.7177,0.5242,-29.8171,119.6951,14.7561
1595879422,0.0581,0.7463,0.4488,-24.5732,124.6951,5.7317
1595879422,0.0066,0.7688,0.4011,-19.6951,105.5488,-0.8537
1595879422,0.0573,0.7269,0.4772,-24.0244,26.5244,-5.9146
1595879422,0.0676,0.6923,0.5317,-25.4878,-5.4878,-13.3537
1595879422,0.0398,0.6748,0.5743,-24.8171,-23.9024,-23.7805
1595879422,0.2072,0.6991,0.5229,-23.5366,-48.7195,-44.1463
1595879422,0.3459,0.6774,0.4398,-27.0732,-50.6707,-48.8415
1595879422,0.3616,0.6231,0.4324,-29.8780,-34.5732,-54.4512
1595879422,0.3733,0.5842,0.4624,-28.0488,-5.7927,-64.7561
1595879422,0.4347,0.5410,0.4716,-25.2439,25.1829,-74.6341
1595879422,0.4764,0.5515,0.4537,-18.5366,52.1341,-80.3659
1595879422,0.4755,0.6071,0.4773,-5.3049,71.0366,-83.6585
1595879422,0.4576,0.6306,0.5142,4.2073,80.8537,-87.0122
1595879422,0.4401,0.6446,0.5490,12.6220,78.7805,-89.8781
1595879422,0.4625,0.6892,0.5679,21.5244,66.7073,-90.7927
1595879422,0.5322,0.7278,0.5071,26.0976,52.8049,-88.8415
1595879422,0.5969,0.7466,0.4872,26.8902,45.5488,-85.7317
1595879422,0.6321,0.7405,0.4904,28.8415,49.2073,-82.5610
1595879422,0.6691,0.7441,0.5223,31.7073,59.8171,-75.6098
1595879422,0.7258,0.7473,0.5746,32.6829,72.3781,-66.4024
1595879422,0.7280,0.7300,0.5882,31.2805,87.8659,-56.7683
1595879422,0.7053,0.7314,0.5720,33.1707,102.4390,-45.8537
1595879422,0.6989,0.7643,0.5725,36.8293,109.2683,-34.6341
1595879422,0.6183,0.7776,0.5933,38.2317,107.3781,-25.7317
1595879422,0.4481,0.7987,0.6119,38.2317,102.4390,-19.2073
1595879422,0.3818,0.8171,0.5211,33.4146,83.5366,-9.0854
1595879422,0.4059,0.8289,0.4958,32.8049,77.3781,-4.4512
1595879422,0.4629,0.8016,0.5511,29.8780,81.0976,-2.6220
1595879422,0.4254,0.7560,0.6301,22.3780,90.5488,-2.1341
1595879422,0.3146,0.7685,0.6877,19.6341,98.4756,-1.8902
1595879422,0.2350,0.8084,0.7051,18.9634,96.2805,-2.5000
1595879422,0.1901,0.8426,0.7342,18.7195,82.0732,-4.6951
1595879422,0.1538,0.8401,0.7340,14.2683,62.9268,-5.6098
1595879422,0.1003,0.8367,0.6879,9.5732,44.0854,-4.4512
1595879422,0.0783,0.8378,0.6430,7.9878,27.3171,-5.7317
1595879422,0.0979,0.8197,0.6295,5.0610,14.3293,-8.5976
1595879422,0.0803,0.7877,0.6529,2.3171,6.7683,-12.8659
1595879422,0.1082,0.7901,0.6887,2.5610,3.9634,-16.0366
1595879422,0.1729,0.8025,0.7097,1.7073,-0.4878,-16.4024
1595879422,0.2034,0.8029,0.7032,0.1829,-4.9390,-17.0732
1595879422,0.2006,0.7997,0.6797,0.6098,-5.9756,-16.8902
1595879422,0.1783,0.8004,0.6532,1.4634,-4.8780,-15.2439
1595879422,0.1490,0.7970,0.6307,1.9512,-2.6829,-12.8049
1595879422,0.1212,0.7917,0.6041,2.3171,0.6098,-11.7683
1595879422,0.1365,0.7922,0.5823,2.5000,5.4878,-11.7683
1595879422,0.1623,0.7998,0.5751,3.2317,11.6463,-11.8293
1595879422,0.2014,0.8305,0.5631,7.8049,23.2317,-11.2195
1595879422,0.1367,0.9359,0.5247,12.8049,29.5122,-10.0000
1595879422,0.2556,0.9683,0.6365,9.7561,25.3659,-7.0732
1595879422,0.1782,0.8760,0.6280,-0.6707,24.6951,2.3780
1595879422,0.1721,0.8724,0.5755,-1.2805,14.3293,5.7927
1595879422,0.1302,0.9751,0.4979,0.4878,1.2805,8.2317
1595879422,0.0673,0.9742,0.6034,3.7195,-11.7683,8.7195
1595879422,0.1426,1.0238,0.7009,1.7073,-34.3293,7.8659
1595879422,0.2487,1.0978,0.6843,-5.4268,-59.2683,11.5854
1595879422,0.3197,1.1278,0.5977,-12.6220,-83.5976,20.4878
1595879422,0.4180,1.0242,0.5273,-28.1707,-129.5122,45.4878
1595879422,0.4590,0.9787,0.5399,-34.6341,-136.5854,55.4878
1595879422,0.5052,0.9808,0.5379,-35.4268,-133.5976,66.9512
1595879422,0.5421,0.9548,0.5328,-33.1707,-128.7805,76.6463
1595879422,0.5093,0.8831,0.5341,-32.1951,-121.2195,85.1220
1595879422,0.4484,0.8106,0.5325,-29.4512,-109.9390,93.7805
1595879422,0.5944,0.6937,0.3989,-23.7805,-95.0000,106.5244
1595879422,0.7670,0.6677,0.3625,-18.4146,-92.6220,109.8781
1595879422,0.7596,0.6296,0.3973,-11.0366,-84.8781,109.7561
1595879422,0.5155,0.5881,0.4521,-2.2561,-60.3659,101.8902
1595879422,0.2654,0.5809,0.4938,6.8293,-24.4512,87.6829
1595879422,0.1370,0.6063,0.4958,10.1220,2.6829,74.4512
1595879422,0.1636,0.6426,0.5316,7.5000,11.0366,64.7561
1595879422,0.2131,0.6692,0.6180,-0.6098,11.2805,54.3293
1595879422,0.1283,0.6809,0.6705,-8.9024,15.4878,42.8659
1595879422,-0.0309,0.6658,0.6480,-13.3537,23.4146,34.3902
1595879422,-0.1537,0.6602,0.5666,-12.1951,19.9390,25.9146
1595879422,-0.0995,0.6618,0.5183,-9.3902,-2.4390,15.0000
1595879422,0.0473,0.6479,0.5608,-11.0976,-32.0732,7.3780
1595879422,0.1242,0.6207,0.6389,-14.5122,-52.6220,0.6707
1595879422,0.1229,0.5980,0.6535,-16.4024,-54.1463,-7.5610
1595879422,0.0937,0.6113,0.6642,-15.1220,-44.7561,-17.2561
1595879423,0.1183,0.6347,0.6725,-12.0122,-38.5366,-29.2683
1595879423,0.1673,0.6045,0.6808,-17.8659,-34.5122,-42.4390
1595879423,0.1229,0.5598,0.6927,-25.2439,-27.9878,-56.0366
1595879423,0.1232,0.5620,0.6837,-25.3049,-19.0244,-69.5732
1595879423,0.2046,0.5677,0.6734,-25.8537,-14.8171,-82.1951
1595879423,0.2657,0.5913,0.6271,-25.9146,-15.4268,-90.9756
1595879423,0.3247,0.6436,0.5972,-20.6707,-18.9024,-98.5366
1595879423,0.4021,0.6601,0.5800,-15.4878,-24.3293,-105.2439
1595879423,0.4649,0.6722,0.5729,-11.2195,-28.1707,-105.3659
1595879423,0.4980,0.6880,0.5488,-4.6951,-29.8171,-102.9878
1595879423,0.5298,0.6980,0.5211,-0.4878,-26.0976,-101.2195
1595879423,0.6086,0.7330,0.5123,3.9024,-17.4390,-98.5366
1595879423,0.6658,0.7507,0.5198,7.3171,-6.0976,-92.7439
1595879423,0.6622,0.7459,0.5159,10.9146,9.8171,-85.7317
1595879423,0.6082,0.7491,0.5032,15.6707,28.7195,-78.7195
1595879423,0.4540,0.7672,0.4741,24.8171,55.6707,-63.6585
1595879423,0.4520,0.8033,0.4569,29.1463,58.4146,-57.3171
1595879423,0.5104,0.8304,0.4611,30.6707,60.3049,-49.3902
1595879423,0.5278,0.8333,0.4852,29.2683,64.1463,-42.1951
1595879423,0.4691,0.8449,0.4927,29.0244,71.1585,-37.9268
1595879423,0.3932,0.8785,0.4601,30.6098,79.3293,-35.2439
1595879423,0.3824,0.9460,0.7233,27.7439,85.2439,-30.3659
1595879423,0.3533,1.0173,0.8021,23.9634,81.8293,-26.0366
1595879423,0.3840,1.0989,0.8364,18.9024,70.3659,-17.1951
1595879423,0.4224,1.1097,0.7095,1.3415,-17.6220,9.1463
1595879423,0.2786,1.0673,0.7339,-4.2683,-36.5854,13.2927
1595879423,0.3287,1.0910,0.6625,-12.5000,-58.7195,15.7927
1595879423,0.3260,0.9932,0.6111,-26.5244,-87.9268,29.0854
1595879423,0.4788,0.9999,0.6107,-35.3049,-113.1098,41.3415
1595879423,0.5856,0.9521,0.6303,-44.5732,-135.2439,57.0732
1595879423,0.6539,0.8473,0.6229,-55.3659,-150.9756,74.2683
1595879423,0.7169,0.8156,0.5807,-57.4390,-151.0976,85.2439
1595879423,0.7685,0.7017,0.5109,-53.1098,-100.5488,98.9024
1595879423,0.7652,0.5994,0.3632,-34.0854,13.4146,111.2805
1595879423,0.7458,0.5963,0.3985,-25.7317,36.5244,112.0732
1595879423,0.6557,0.5567,0.4456,-17.8049,52.1951,106.2805
1595879423,0.4715,0.4924,0.5152,-9.8171,67.9878,93.3537
1595879423,0.2164,0.4789,0.5861,-1.5244,85.9146,82.3781
1595879423,0.0418,0.5275,0.6171,5.9146,96.3415,73.9024
1595879423,0.0131,0.5814,0.6431,6.7073,92.3781,61.8293
1595879423,-0.0903,0.5546,0.6287,-5.9146,62.9268,39.8780
1595879423,-0.2341,0.5491,0.4901,-3.9634,43.4756,29.4512
1595879423,-0.2113,0.5649,0.4298,-2.7439,9.4512,16.7683
1595879423,0.0336,0.6005,0.4869,-5.7317,-34.8780,7.3171
1595879423,0.3142,0.5981,0.5678,-14.3293,-71.8902,3.5366
1595879423,0.4429,0.5730,0.6684,-19.0854,-85.0000,-0.6098
1595879423,0.3868,0.5546,0.7060,-17.5000,-70.1220,-11.2195
1595879423,0.2206,0.5673,0.6740,-11.4634,-14.7561,-33.7195
1595879423,0.2549,0.5755,0.6263,-11.8902,-5.8537,-42.2561
1595879423,0.3684,0.6005,0.5748,-12.0732,-6.5854,-46.5244
1595879423,0.4416,0.6218,0.6317,-9.8780,12.9878,-57.5000
1595879423,0.3724,0.6953,0.6243,11.4024,56.8293,-64.0854
1595879423,0.2623,0.8257,0.3969,43.6585,52.1341,-56.0976
1595879423,0.3033,1.1038,0.7205,38.2927,54.5732,-39.0244
1595879423,0.3079,1.1604,0.7280,29.3902,50.3049,-30.9146
1595879423,0.3865,1.0842,0.7269,14.4512,14.3902,-3.9634
1595879423,0.3372,1.0485,0.7251,5.7317,-10.7927,1.5244
1595879423,0.2312,1.0774,0.6418,0.7317,-24.3293,9.5732
1595879423,0.1865,1.0901,0.5210,-3.1707,-42.1341,20.2439
1595879423,0.2216,1.0579,0.4916,-7.8049,-75.4268,30.1829
1595879423,0.3303,1.0634,0.6522,-20.9756,-144.8781,46.8293
1595879423,0.3431,1.0035,0.6110,-35.9146,-169.1463,58.1707
1595879423,0.7377,0.8604,0.4308,-47.9268,-158.2317,81.4634
1595879423,0.9526,0.7747,0.2966,-47.9878,-126.9512,93.7805
1595879423,1.1307,0.7742,0.3586,-35.6707,-84.8781,101.3415
1595879423,1.0029,0.7177,0.4319,-23.9024,-37.9878,103.5976
1595879423,0.6283,0.6145,0.5148,-11.7683,19.0854,99.3293
1595879423,0.3645,0.5881,0.5212,1.8293,66.4024,91.4634
1595879423,0.4818,0.5396,0.4979,9.5732,54.8781,89.9390
1595879423,0.5953,0.4885,0.5660,6.1585,27.6220,87.1951
1595879423,0.5807,0.4629,0.6187,7.2561,21.1585,81.3415
1595879424,0.4857,0.4482,0.6306,8.5976,33.9634,71.7683
1595879424,0.3938,0.4669,0.6073,9.6951,50.0000,62.1341
1595879424,0.3744,0.4481,0.6020,8.2317,59.9390,55.1220
1595879424,0.3324,0.4332,0.6044,7.4390,64.2073,48.5366
1595879424,0.2432,0.4511,0.6188,9.5732,68.3537,43.9634
1595879424,0.1638,0.4503,0.6752,7.8659,75.7927,37.8659
1595879424,0.0331,0.4131,0.6720,3.2317,77.6220,28.2317
1595879424,-0.0071,0.4301,0.6936,2.6220,63.1707,19.6341
1595879424,0.0145,0.4380,0.7174,1.5854,37.5000,14.3293
1595879424,0.0703,0.4093,0.7094,-3.4146,9.8171,6.3415
1595879424,0.1614,0.4241,0.7453,-6.4634,-8.1098,-3.5366
1595879424,0.1887,0.3911,0.7573,-11.0366,-13.5366,-13.3537
1595879424,0.2220,0.3560,0.7692,-14.3293,-13.1707,-25.7317
1595879424,0.2755,0.3995,0.7733,-14.7561,-11.2805,-38.7805
1595879424,0.3834,0.4786,0.8544,-18.5366,-10.5488,-48.9024
1595879424,0.4589,0.4274,0.8486,-35.2439,-3.5976,-74.5732
1595879424,0.4083,0.5224,0.7792,-24.9390,6.7073,-77.6829
1595879424,0.4354,0.5836,0.7581,-18.4756,12.9878,-77.5000
1595879424,0.5397,0.5593,0.7137,-18.5976,3.4146,-73.7195
1595879424,0.4872,0.5686,0.6646,-12.2561,7.7439,-68.1098
1595879424,0.4606,0.5988,0.6091,-5.5488,18.0488,-64.2683
1595879424,0.4618,0.6256,0.5587,-0.9756,28.4146,-62.8659
1595879424,0.3387,0.6814,0.4474,9.5732,55.6098,-56.8902
1595879424,0.4595,0.7974,0.4818,24.6341,75.3049,-54.4512
1595879424,0.3826,0.8684,0.5004,33.4756,93.4146,-50.2439
1595879424,0.3644,0.9315,0.4500,43.7195,97.1951,-45.6098
1595879424,0.2634,1.1243,0.7228,32.5610,96.4024,-31.9512
1595879424,0.1703,1.1838,0.5503,19.4512,36.7683,-10.3659
1595879424,0.1747,1.1862,0.6000,17.2561,34.9390,-7.2561
1595879424,0.0490,1.1146,0.7325,10.5488,-0.6098,1.6463
1595879424,0.0950,1.2038,0.6785,-4.7561,-73.3537,12.3780
1595879424,0.5496,1.0778,0.4153,-35.4878,-213.5366,81.7683
1595879424,0.5833,0.9124,0.4320,-27.1341,-134.6951,107.3781
1595879424,0.5594,0.6936,0.4505,-6.5854,-87.6220,122.1341
1595879424,0.5828,0.4929,0.5211,15.1220,-6.4024,93.3537
1595879424,0.2515,0.5131,0.6742,2.9268,44.3902,64.3293
1595879424,-0.0970,0.5667,0.6677,-14.8171,65.8537,36.2805
1595879424,0.2416,0.7703,0.6495,-29.0244,-41.4634,16.8902
1595879424,0.2629,0.7344,0.7070,-39.4512,-66.8293,9.7561
1595879424,0.2849,0.7379,0.7518,-45.1220,-89.8171,-4.8171
1595879424,0.3666,0.7433,0.7324,-50.2439,-103.1707,-8.9634
1595879424,0.4221,0.7420,0.6771,-55.8537,-114.2073,-11.2195
1595879424,0.4302,0.7343,0.6083,-58.0488,-118.5976,-14.0244
1595879424,0.4352,0.7178,0.5342,-56.2195,-119.1463,-16.8902
1595879424,0.4507,0.7202,0.4632,-52.8049,-119.5122,-18.8415
1595879424,0.4715,0.7298,0.4247,-47.8659,-121.5244,-20.3659
1595879424,0.4907,0.7164,0.4072,-43.7805,-121.4634,-20.4878
1595879424,0.5107,0.7036,0.4156,-39.8780,-118.3537,-19.6341
1595879424,0.5468,0.7142,0.4382,-35.3049,-112.0732,-19.3293
1595879424,0.5634,0.7340,0.4412,-32.1951,-102.1341,-19.7561
1595879424,0.5464,0.7520,0.4211,-29.0244,-89.7561,-19.8171
1595879424,0.5587,0.7693,0.4130,-22.9268,-77.4390,-19.9390
1595879424,0.5645,0.7733,0.3957,-17.8049,-65.8537,-21.2195
1595879424,0.5202,0.7734,0.3774,-13.2317,-53.8415,-23.1707
1595879424,0.4729,0.7495,0.3498,-7.4390,-41.8902,-24.8780
1595879424,0.4244,0.7195,0.2931,-2.1341,-33.6585,-26.3415
1595879424,0.4816,0.7435,0.2502,5.5488,-32.6220,-27.8659
1595879424,0.6587,0.7629,0.2243,12.0732,-33.4146,-27.3171
1595879424,0.8055,0.7422,0.2010,14.0854,-29.7561,-25.3049
1595879424,0.8453,0.7435,0.2178,19.5122,-18.3537,-25.0610
1595879424,0.7432,0.7634,0.2328,25.8537,0.2439,-29.4512
1595879424,0.6085,0.7877,0.2498,30.5488,20.0000,-36.4634
1595879424,0.5325,0.8054,0.2832,32.5000,32.2561,-42.5610
1595879424,0.5233,0.8002,0.3254,30.7927,35.0610,-45.6098
1595879424,0.5554,0.7701,0.3693,27.2561,34.3902,-48.2317
1595879424,0.5802,0.7385,0.4066,24.8171,35.6098,-51.3415
1595879424,0.5945,0.7254,0.4224,25.1829,38.4146,-52.6829
1595879424,0.6149,0.7460,0.4385,26.8902,39.4512,-52.6220
1595879424,0.6194,0.7682,0.4473,28.6585,36.4024,-53.1098
1595879424,0.6016,0.7565,0.4415,29.8171,31.9512,-55.3049
1595879424,0.5941,0.7237,0.4127,31.2805,27.5610,-59.0854
1595879424,0.6218,0.7115,0.3974,33.0488,23.2317,-62.6220
1595879425,0.6562,0.7090,0.4005,35.3049,17.9878,-64.8171
1595879425,0.6403,0.6959,0.4092,36.4024,14.5732,-67.5000
1595879425,0.5981,0.6970,0.4205,37.5610,13.5366,-71.7683
1595879425,0.5701,0.7193,0.4319,37.5000,13.4146,-76.0366
1595879425,0.5645,0.7409,0.4565,34.5732,12.2561,-78.5976
1595879425,0.5647,0.7480,0.4880,30.9146,10.2439,-80.0610
1595879425,0.5597,0.7454,0.5279,27.9268,8.1098,-81.5854
1595879425,0.5596,0.7548,0.5594,25.0000,5.9756,-82.8049
1595879425,0.5842,0.7684,0.5773,21.7073,3.4756,-83.1707
1595879425,0.6371,0.7737,0.5845,18.3537,0.6098,-82.9268
1595879425,0.7315,0.7346,0.5630,16.7073,-7.3171,-77.3171
1595879425,0.6780,0.6920,0.5202,16.9512,-8.5366,-76.8902
1595879425,0.6251,0.6609,0.4969,18.1098,-11.7073,-76.0976
1595879425,0.6543,0.6430,0.4941,18.6585,-18.8415,-74.3293
1595879425,0.7397,0.6036,0.5098,15.2439,-28.2927,-70.4878
1595879425,0.8298,0.5480,0.5305,10.1220,-37.1951,-64.8171
1595879425,0.8797,0.4900,0.5565,8.7195,-42.0122,-57.6220
1595879425,0.8839,0.4350,0.5905,11.4634,-45.0610,-49.2073
1595879425,0.8834,0.3900,0.6219,15.5488,-51.5854,-38.9024
1595879425,0.8986,0.3575,0.6441,17.9878,-62.8659,-27.0732
1595879425,0.9345,0.3369,0.6449,18.1098,-75.5488,-15.0000
1595879425,0.9720,0.3243,0.6165,17.8049,-84.4512,-3.7195
1595879425,1.0002,0.3087,0.5676,19.6341,-86.7683,6.3415
1595879425,1.0406,0.3090,0.5025,24.8171,-71.7683,25.7317
1595879425,1.0342,0.3089,0.4640,25.3659,-56.3415,34.5122
1595879425,1.0027,0.3281,0.4268,28.2317,-38.0488,42.4390
1595879425,0.9609,0.3505,0.4088,29.0854,-18.3537,48.3537
1595879425,0.9230,0.3670,0.4028,29.3902,-1.1585,52.5000
1595879425,0.8759,0.3765,0.4004,27.8659,12.9268,55.3049
1595879425,0.8173,0.3843,0.3868,26.4024,25.7927,58.1098
1595879425,0.7724,0.4069,0.3774,25.7927,35.9146,60.4268
1595879425,0.7461,0.4311,0.3529,25.9756,40.9146,62.1951
1595879425,0.7673,0.4646,0.3375,26.0366,41.9512,63.2927
1595879425,0.8096,0.5189,0.3629,26.5854,41.2195,63.4756
1595879425,0.8187,0.5577,0.3827,25.0610,40.1220,63.6585
1595879425,0.7903,0.5797,0.3884,22.0732,41.3415,63.5366
1595879425,0.6990,0.6462,0.3569,22.5610,44.0244,61.5244
1595879425,0.6703,0.6965,0.2686,23.3537,34.7561,57.4390
1595879425,0.6226,0.7113,0.2355,20.6707,21.7073,50.8537
1595879425,0.5984,0.7277,0.2327,19.6341,19.0854,45.0610
1595879425,0.6121,0.7604,0.2567,19.2073,18.3537,39.3293
1595879425,0.5984,0.8275,0.3210,12.3780,26.0976,26.0366
1595879425,0.5402,0.8989,0.3240,6.7073,50.6098,13.4146
1595879425,0.5607,0.9294,0.2981,2.0122,60.4878,9.2683
1595879425,0.5600,0.9518,0.2695,-1.2805,67.9268,5.3659
1595879425,0.5172,0.9557,0.2427,-3.6585,76.8293,0.8537
1595879425,0.4811,0.9707,0.2238,-4.0854,86.0366,-4.1463
1595879425,0.3972,1.0329,0.2745,-1.2195,95.9756,-17.0732
1595879425,0.4062,1.0677,0.2838,0.7927,97.1951,-20.5488
1595879425,0.4324,1.1174,0.3035,3.4146,96.4634,-22.0732
1595879425,0.4001,1.1110,0.2960,3.2927,102.9878,-23.7195
1595879425,0.3502,1.0979,0.2734,3.0488,112.8049,-23.8415
1595879425,0.1711,1.2139,0.4302,19.9390,84.3293,-28.9634
1595879425,0.0565,1.2278,0.3193,15.0610,21.4024,-24.8171
1595879425,0.1682,1.2656,0.3621,9.3293,-1.4024,-21.5854
1595879425,0.3402,1.2967,0.3867,-0.4268,-13.7805,-17.5000
1595879425,0.2177,1.3136,0.4740,-1.8902,-22.0122,-9.3293
1595879425,0.0414,1.3043,0.4738,-3.0488,-35.3049,-0.3659
1595879425,0.0161,1.3317,0.4299,-7.5000,-52.8049,-3.9634
1595879425,0.0844,1.3424,0.4094,-16.4634,-77.3781,2.3780
1595879425,0.1253,1.3374,0.4114,-25.3659,-105.4268,11.2805
1595879425,0.1382,1.3489,0.4032,-33.1707,-132.2561,18.9024
1595879425,0.1826,1.3723,0.4045,-38.5976,-159.2683,30.9756
1595879425,0.2285,1.3668,0.4114,-44.3293,-185.7927,45.0000
1595879425,0.3624,1.3060,0.3344,-59.5732,-242.0122,91.2805
1595879425,0.3926,1.3007,0.3597,-70.5488,-210.9146,99.1463
1595879425,0.3717,1.2944,0.3451,-75.9756,-187.7439,101.5854
1595879425,0.1525,0.9918,0.0104,-114.0854,-121.7683,78.1098
1595879425,0.1799,0.9713,-0.0193,-108.5366,-134.2683,69.5732
1595879425,0.2817,0.9473,-0.0017,-101.3415,-152.1342,57.7439
1595879426,0.5729,0.8615,0.0730,-99.4512,-163.5976,37.9268
1595879426,0.6729,0.8138,0.0518,-99.6341,-143.4146,28.3537
1595879426,0.6526,0.6444,0.0132,-99.6951,-102.1951,12.5610
1595879426,0.5126,0.5331,0.0103,-94.1463,-58.2927,-2.9878
1595879426,0.4087,0.5303,-0.0116,-87.5000,-26.2805,-10.0000
1595879426,0.4140,0.3669,-0.1534,-70.4878,-30.9756,-48.9634
1595879426,0.5048,0.3318,-0.1390,-61.4634,-52.3171,-57.6829
1595879426,0.7224,0.4066,-0.2007,-37.6829,-113.8415,-65.7317
1595879426,0.7597,0.4587,-0.1675,-27.1951,-129.2073,-72.5000
1595879426,1.1488,0.4594,-0.1787,-25.9756,-106.1585,-94.2683
1595879426,0.8776,0.4774,-0.1248,-26.3415,-66.7073,-84.6341
1595879426,0.6002,0.4846,-0.0992,-17.8659,-40.5488,-82.1341
1595879426,0.5300,0.5482,-0.0973,-10.6098,-52.6829,-90.4878
1595879426,0.6019,0.6450,-0.0903,-6.6463,-88.5366,-90.1220
1595879426,0.7313,0.6914,-0.1641,-7.3780,-118.0488,-82.7439
1595879426,0.7685,0.7532,-0.2373,-12.9268,-130.4878,-78.5366
1595879426,0.8203,0.7465,-0.2496,-14.5122,-144.3293,-77.7439
1595879426,0.9393,0.7216,-0.2117,-22.5610,-154.0244,-75.6707
1595879426,1.0703,0.7512,-0.2175,-27.5000,-181.4634,-67.5000
1595879426,1.1785,0.7052,-0.1484,-30.6098,-198.1707,-58.2927
1595879426,1.0807,0.6443,-0.0687,-43.2927,-187.7439,-51.4634
1595879426,0.9229,0.6096,-0.0829,-52.9878,-163.1707,-49.5122
1595879426,0.9241,0.6703,-0.0899,-57.0122,-141.0976,-46.8902
1595879426,0.8530,0.6202,-0.2001,-85.8537,-74.4512,-28.4146
1595879426,0.7850,0.5867,-0.2454,-87.1951,-54.2683,-28.2927
1595879426,0.6887,0.6391,-0.2167,-87.6220,-39.0244,-24.7561
1595879426,0.6331,0.7702,-0.2473,-83.1098,-34.0854,-20.4268
1595879426,0.6840,0.8165,-0.1704,-80.4878,-51.2195,-15.8537
1595879426,0.8605,0.7513,-0.0451,-89.5122,-87.1951,-12.4390
1595879426,0.9719,0.6008,-0.0285,-101.8293,-122.4390,-10.4268
1595879426,0.3682,0.7642,0.1486,-91.5244,-98.7805,-5.0610
1595879426,0.8023,0.7649,-0.1617,-111.6463,-250.2439,23.6585
1595879426,1.0772,0.7646,-0.2237,-112.5000,-312.4390,46.7073
1595879426,1.2431,0.7653,-0.3177,-112.1341,-324.0244,60.9146
1595879426,1.3308,0.7070,-0.3297,-108.2927,-314.6951,74.4512
1595879426,1.1646,0.6624,-0.2776,-107.9268,-282.5610,84.0854
1595879426,0.9288,0.6931,-0.2313,-103.4146,-245.7317,85.3659
1595879426,0.8684,0.6927,-0.2433,-99.8781,-224.8781,87.5000
1595879426,0.9183,0.6262,-0.2667,-99.7561,-219.7561,91.2195
1595879426,0.9863,0.5822,-0.3059,-99.7561,-222.9268,94.5122
1595879426,1.0349,0.5710,-0.3115,-96.2195,-227.0732,98.2927
1595879426,1.0471,0.5438,-0.3159,-91.6463,-230.0000,103.7805
1595879426,1.0200,0.5135,-0.3368,-86.4634,-225.3049,109.4512
1595879426,1.0146,0.5099,-0.3420,-80.4878,-213.7195,114.6951
1595879426,1.0110,0.5142,-0.3472,-74.5122,-199.3293,119.1463
1595879426,0.9688,0.5114,-0.3519,-69.6341,-184.5732,121.8293
1595879426,0.8866,0.4833,-0.3510,-67.0122,-168.1707,124.2683
1595879426,0.7865,0.4372,-0.3568,-65.9756,-152.7439,125.4268
1595879426,0.7343,0.4227,-0.3655,-64.0244,-143.8415,124.8781
1595879426,0.7406,0.4378,-0.3694,-59.7561,-142.3171,123.8415
1595879426,0.7989,0.4372,-0.3599,-54.9390,-144.5732,123.1707
1595879426,0.8665,0.4178,-0.3600,-52.8659,-142.8659,123.7805
1595879426,0.9083,0.4177,-0.3893,-51.4634,-136.5854,123.1098
1595879426,0.8824,0.4409,-0.4233,-51.9512,-124.9390,122.1951
1595879426,0.7933,0.4880,-0.4708,-54.5732,-110.3049,122.4390
1595879426,0.7377,0.5177,-0.5367,-57.8049,-97.1341,122.4390
1595879426,0.7509,0.5140,-0.5675,-62.5000,-92.5610,120.3049
1595879426,0.7546,0.4841,-0.5922,-66.6463,-94.5732,117.8659
1595879426,0.7126,0.4470,-0.6198,-68.3537,-96.3415,114.8171
1595879426,0.6823,0.4391,-0.6320,-67.0732,-96.7073,110.1220
1595879426,0.6998,0.4430,-0.6165,-64.0244,-98.0488,106.8293
1595879426,0.7730,0.4249,-0.5806,-61.5854,-102.0122,104.3293
1595879426,0.7806,0.4034,-0.5637,-61.7073,-102.9268,103.5366
1595879426,0.7120,0.4034,-0.5749,-62.6220,-97.8049,104.4512
1595879426,0.6674,0.3984,-0.5787,-62.9268,-91.7683,104.0854
1595879426,0.6750,0.3717,-0.5732,-64.6341,-91.5244,103.5976
1595879426,0.7029,0.3422,-0.5867,-67.6829,-92.9268,104.0854
1595879426,0.6955,0.3384,-0.5948,-69.1463,-90.0000,104.2683
1595879426,0.6686,0.3342,-0.6300,-69.3293,-83.7195,103.2317
1595879426,0.6500,0.3281,-0.6505,-68.9024,-76.8293,100.1220
1595879426,0.6669,0.3088,-0.6484,-67.9268,-72.4390,97.0732
1595879426,0.6857,0.2870,-0.6332,-66.9512,-69.6951,95.5488
1595879426,0.6840,0.2819,-0.6065,-65.2439,-67.8049,94.5122
1595879426,0.6749,0.2786,-0.5994,-63.2927,-64.2683,92.3171
1595879426,0.7014,0.2885,-0.5690,-61.4634,-59.4512,89.6341
1595879426,0.7245,0.2885,-0.5333,-60.6098,-55.0000,87.8659
1595879426,0.7405,0.2742,-0.5395,-61.7073,-48.8415,85.5488
1595879426,0.7167,0.2643,-0.5717,-63.5366,-41.7683,82.8049
1595879426,0.6953,0.2698,-0.5998,-64.8171,-36.4634,79.5732
1595879426,0.7117,0.2850,-0.6043,-65.4268,-35.1220,76.2195
1595879426,0.7470,0.3074,-0.6033,-67.3171,-32.1951,75.1220
1595879426,0.7662,0.3124,-0.5993,-69.0854,-26.8293,73.3537
1595879426,0.8046,0.3071,-0.6133,-72.9268,-21.0366,72.0122
1595879426,0.8519,0.3110,-0.6345,-75.7927,-14.5732,70.3049
1595879426,0.8459,0.3048,-0.6569,-77.9268,-4.6341,70.5488
1595879426,0.8174,0.2819,-0.6685,-79.6951,7.7439,68.0488
1595879426,0.7839,0.2727,-0.6591,-80.8537,18.1098,64.1463
1595879426,0.7097,0.2610,-0.6758,-82.6220,24.0244,62.6220
1595879426,0.6660,0.2745,-0.6756,-83.7195,24.4512,59.6951
1595879426,0.6761,0.2947,-0.6677,-82.0122,15.8537,55.0610
1595879426,0.6927,0.2872,-0.6738,-81.2805,1.4024,52.1951
1595879426,0.7397,0.2816,-0.6727,-80.9146,-12.5610,49.3902
1595879426,0.8102,0.2874,-0.6525,-79.5732,-24.3293,46.7683
1595879426,0.8566,0.2875,-0.6327,-78.8415,-30.4878,45.4878
1595879426,0.8583,0.2890,-0.6233,-79.5122,-29.2073,43.8415
1595879426,0.8297,0.2914,-0.6076,-80.1220,-24.8780,42.5000
1595879426,0.8011,0.2985,-0.5600,-80.7317,-18.3537,41.8293
1595879426,0.7630,0.2996,-0.5408,-82.5610,-6.0366,40.1220
1595879426,0.7159,0.2924,-0.5699,-85.4878,4.3293,36.8293
1595879426,0.6990,0.2875,-0.5666,-88.2317,9.8171,34.0854
1595879426,0.7188,0.2934,-0.5369,-89.8781,8.1707,31.7683
1595879426,0.6744,0.3181,-0.4643,-90.2439,2.6220,29.2683
1595879426,0.7081,0.3623,-0.4132,-90.6707,-6.8902,24.0244
1595879426,0.8194,0.3718,-0.4063,-92.7439,-16.4634,19.3293
1595879426,0.9147,0.3629,-0.4200,-97.8049,-22.5610,18.9024
1595879426,0.9380,0.3860,-0.4097,-102.6829,-16.5854,20.3049
1595879426,0.9128,0.3636,-0.4512,-106.2195,0.6098,18.1707
1595879426,0.8812,0.3625,-0.5325,-110.1220,23.6585,15.1829
1595879426,0.7243,0.3740,-0.5583,-111.7683,47.1341,15.6098
1595879426,0.5337,0.3499,-0.5524,-113.6585,62.0122,10.8537
1595879426,0.4603,0.3578,-0.5309,-116.8902,65.4268,3.8415
1595879427,0.5355,0.3925,-0.5355,-116.0366,48.6585,-1.2805
1595879427,0.6490,0.4391,-0.5397,-114.0854,26.2195,-4.5122
1595879427,0.7261,0.4807,-0.5535,-112.9878,6.5854,-7.0122
1595879427,0.8763,0.5116,-0.5776,-113.2317,-5.6098,-9.0854
1595879427,1.0374,0.5016,-0.5394,-115.5488,-10.3049,-12.0122
1595879427,1.0721,0.5156,-0.5305,-117.4390,-8.2317,-11.9512
1595879427,0.9670,0.5460,-0.5541,-117.6220,10.3659,-11.4024
1595879427,0.8006,0.5619,-0.5593,-119.7561,33.7805,-10.9146
1595879427,0.7198,0.5736,-0.5798,-123.6585,45.9146,-10.7927
1595879427,0.7056,0.6311,-0.6007,-125.6707,42.3780,-15.1829
1595879427,0.7114,0.6978,-0.5865,-126.2805,28.7195,-19.2683
1595879427,0.7436,0.7354,-0.5458,-128.4756,14.2683,-22.5610
1595879427,0.7576,0.7286,-0.5446,-131.9512,4.5122,-28.6585
1595879427,0.8016,0.7216,-0.5301,-134.5732,-8.5366,-34.8780
1595879427,0.8756,0.7219,-0.5150,-134.2683,-22.4390,-36.7683
1595879427,0.9114,0.7233,-0.5219,-133.8415,-29.7561,-37.8659
1595879427,0.9178,0.7401,-0.5182,-133.4146,-33.1707,-37.5000
1595879427,0.8949,0.7487,-0.4867,-132.2561,-34.8171,-34.8171
1595879427,0.8729,0.7360,-0.4464,-130.6707,-38.2317,-32.0732
1595879427,0.8433,0.7152,-0.4158,-128.3537,-41.0366,-27.8659
1595879427,0.8285,0.6998,-0.4196,-124.6341,-41.7683,-23.0488
1595879427,0.8057,0.6666,-0.3790,-118.9634,-44.2683,-17.6829
1595879427,0.7563,0.6225,-0.3006,-115.0610,-47.1341,-12.1951
1595879427,0.7485,0.6270,-0.2559,-111.5244,-51.5854,-9.6951
1595879427,0.7872,0.6301,-0.2378,-107.8049,-57.1951,-4.3293
1595879427,0.8372,0.6152,-0.2259,-106.5854,-62.8049,2.8049
1595879427,0.8414,0.6047,-0.2220,-106.0976,-63.5366,7.8659
1595879427,0.7942,0.6072,-0.2301,-106.0976,-55.0000,11.2195
1595879427,0.7411,0.6110,-0.2385,-106.0366,-43.6585,13.4756
1595879427,0.7188,0.6138,-0.2455,-105.4878,-37.3171,14.5732
1595879427,0.7109,0.6079,-0.2529,-104.6341,-34.0244,13.9024
1595879427,0.6743,0.6053,-0.2618,-104.0854,-32.7439,12.5000
1595879427,0.6427,0.6117,-0.2621,-103.1098,-34.3293,10.4878
1595879427,0.6647,0.6173,-0.2443,-101.8293,-39.5122,7.5610
1595879427,0.7167,0.6254,-0.2228,-101.2195,-46.4634,4.8780
1595879427,0.7382,0.6306,-0.2153,-101.7683,-51.3415,2.6220
1595879427,0.7526,0.6368,-0.2122,-102.5610,-51.6463,0.4878
1595879427,0.7558,0.6313,-0.2061,-103.2927,-47.5610,-1.4024
1595879427,0.7484,0.6126,-0.1876,-103.9024,-43.5976,-3.2317
1595879427,0.7250,0.5946,-0.1808,-105.0610,-37.1951,-4.5122
1595879427,0.7034,0.5956,-0.1864,-104.4512,-32.9878,-6.5244
1595879427,0.7275,0.5962,-0.1901,-102.8049,-34.8780,-7.1341
1595879427,0.7685,0.5919,-0.1825,-101.0976,-39.3902,-7.0122
1595879427,0.7784,0.5831,-0.1610,-98.5976,-44.2683,-6.9512
1595879427,0.7655,0.5681,-0.1454,-96.5244,-46.8902,-6.0366
1595879427,0.7690,0.5560,-0.1398,-94.4512,-48.2317,-5.7317
1595879427,0.7927,0.5470,-0.1340,-92.2561,-50.6098,-5.0000
1595879427,0.8107,0.5504,-0.1476,-90.4268,-52.1341,-3.7805
1595879427,0.8354,0.5524,-0.1552,-88.5976,-51.2195,-3.4756
1595879427,0.8580,0.5437,-0.1427,-87.2561,-47.9878,-3.4756
1595879427,0.8685,0.5338,-0.1267,-86.0976,-42.2561,-3.1707
1595879427,0.8444,0.5359,-0.1041,-84.3902,-33.9024,-3.5366
1595879427,0.8157,0.5408,-0.0917,-82.4390,-27.0122,-3.8415
1595879427,0.7919,0.5338,-0.0770,-80.9756,-23.0488,-4.0854
1595879427,0.7814,0.5226,-0.0632,-80.4268,-21.1585,-4.3293
1595879427,0.7603,0.5175,-0.0632,-79.6951,-19.2073,-5.0000
1595879427,0.7419,0.5105,-0.0737,-78.4146,-18.7805,-5.0610
1595879427,0.7504,0.5046,-0.0920,-76.8902,-19.9390,-5.3659
1595879427,0.7550,0.5023,-0.1055,-75.2439,-24.1463,-5.8537
1595879427,0.7595,0.4998,-0.1118,-72.7439,-32.5000,-6.0366
1595879427,0.7623,0.5026,-0.1018,-69.6951,-41.6463,-5.9146
1595879427,0.7672,0.5043,-0.0820,-67.1951,-49.3902,-5.6098
1595879427,0.7689,0.5198,-0.0679,-65.2439,-53.5976,-5.6707
1595879427,0.7858,0.5452,-0.0633,-63.4146,-53.9634,-5.7317
1595879427,0.8093,0.5704,-0.0655,-62.8659,-51.6463,-6.6463
1595879427,0.8369,0.5911,-0.0760,-62.6829,-47.9878,-7.7439
1595879427,0.8730,0.6130,-0.0896,-63.0488,-44.0854,-8.6585
1595879427,0.8934,0.6368,-0.0988,-63.6585,-39.3293,-9.5122
1595879427,0.8713,0.6525,-0.1002,-64.6951,-32.2561,-10.6098
1595879427,0.8512,0.6607,-0.1154,-65.3049,-27.1341,-12.6829
1595879427,0.8552,0.6683,-0.1315,-65.5488,-24.6341,-14.5732
1595879427,0.8750,0.6815,-0.1255,-64.8171,-25.6707,-15.6707
1595879427,0.8901,0.6888,-0.0930,-63.1707,-27.5000,-16.6463
1595879427,0.8934,0.7005,-0.0597,-62.1341,-25.3049,-18.0488
1595879427,0.8912,0.7308,-0.0217,-61.2805,-20.6707,-20.0000
1595879427,0.9025,0.7609,-0.0031,-59.5732,-14.2073,-21.2805
1595879427,0.9166,0.7583,-0.0168,-59.6341,-7.6220,-23.7195
1595879427,0.9133,0.7592,-0.0424,-60.8537,-3.7195,-24.7561
1595879427,0.8536,0.7801,-0.0551,-60.0000,-4.2073,-23.0488
1595879427,0.8115,0.8024,-0.0525,-56.5244,-12.6220,-22.2561
1595879427,0.7931,0.8085,-0.0392,-53.9634,-24.0854,-21.4024
1595879427,0.7742,0.7943,-0.0212,-52.3781,-32.9268,-20.9146
1595879427,0.7880,0.7709,-0.0497,-52.5000,-32.2561,-22.0732
1595879427,0.8121,0.7911,-0.0853,-47.6220,-29.3902,-24.8171
1595879427,0.8436,0.8163,-0.0876,-41.0976,-33.0488,-24.4512
1595879427,0.8994,0.8151,-0.0790,-38.7805,-44.3293,-23.1098
1595879427,0.9764,0.8250,-0.0851,-36.7073,-54.1463,-23.7805
1595879427,0.9919,0.8318,-0.0681,-32.2561,-55.0610,-24.6341
1595879427,0.9755,0.8229,-0.0455,-29.0854,-51.5854,-23.2927
1595879427,0.9465,0.8224,-0.0156,-27.3171,-46.2195,-21.6463
1595879427,0.9392,0.8087,-0.0009,-24.8171,-39.5122,-20.4268
1595879427,0.9054,0.7678,0.0152,-23.3537,-30.6098,-18.5366
1595879427,0.8283,0.7284,0.0377,-21.7073,-25.9146,-15.0610
1595879427,0.7780,0.6936,0.0493,-20.6707,-26.6463,-10.0610
1595879427,0.7900,0.6672,0.0539,-19.2073,-32.6829,-7.4390
1595879427,0.8351,0.6693,0.0626,-17.1951,-39.5122,-4.2073
1595879427,0.8694,0.6880,0.0577,-15.3659,-43.5366,2.1951
1595879427,0.8756,0.6962,0.0333,-14.2683,-41.9512,8.7195
1595879427,0.8375,0.6980,-0.0048,-13.5366,-34.7561,13.3537
1595879427,0.8051,0.7144,-0.0411,-12.6220,-26.0366,15.9756
1595879427,0.7949,0.7429,-0.0518,-12.1951,-18.9024,17.5610
1595879427,0.7676,0.7749,-0.0616,-13.2317,-14.8780,19.4512
1595879428,0.7590,0.7923,-0.0828,-15.1829,-12.2561,20.3659
1595879428,0.7603,0.8146,-0.0995,-16.9512,-12.4390,20.0000
1595879428,0.7711,0.8358,-0.1310,-18.6585,-14.7561,21.0366
1595879428,0.7905,0.8390,-0.1696,-20.5488,-16.6463,22.5000
1595879428,0.8091,0.8336,-0.2011,-21.7683,-18.3537,23.2317
1595879428,0.8065,0.8174,-0.2244,-22.7439,-19.2073,25.6098
1595879428,0.7986,0.7967,-0.2442,-23.2927,-19.4512,27.9878
1595879428,0.7825,0.7686,-0.2425,-22.9268,-19.5122,29.2073
1595879428,0.7744,0.7390,-0.2300,-21.7073,-20.5488,30.3049
1595879428,0.7897,0.7163,-0.2129,-20.6098,-21.6463,31.8293
1595879428,0.8171,0.7058,-0.2029,-19.0854,-22.5610,33.4146
1595879428,0.8257,0.7038,-0.1911,-17.0732,-23.7195,35.4878
1595879428,0.8036,0.6973,-0.1755,-15.6098,-24.9390,37.9268
1595879428,0.7803,0.6697,-0.1699,-15.4878,-24.1463,39.9390
1595879428,0.7424,0.6402,-0.1639,-14.8171,-23.6585,41.0366
1595879428,0.7120,0.6030,-0.1827,-13.4146,-26.8293,41.7683
1595879428,0.7083,0.5632,-0.1841,-12.0122,-31.2195,41.5244
1595879428,0.7099,0.5472,-0.1716,-10.4878,-35.4878,39.7561
1595879428,0.6995,0.5599,-0.1604,-8.7195,-37.6829,39.2073
1595879428,0.7255,0.5580,-0.1525,-7.5000,-39.3902,39.5122
1595879428,0.8047,0.5117,-0.1635,-9.9390,-36.8293,40.0000
1595879428,0.8489,0.4650,-0.1426,-10.6098,-31.0976,38.8415
1595879428,0.8303,0.4678,-0.1273,-7.6829,-23.4756,37.0122
1595879428,0.8176,0.4992,-0.1443,-3.1098,-20.6707,37.9268
1595879428,0.8817,0.5009,-0.1574,-0.2439,-28.7195,39.8780
1595879428,0.9112,0.4999,-0.1501,0.7927,-40.8537,39.6341
1595879428,0.8734,0.4969,-0.1525,3.2927,-49.8781,36.9512
1595879428,0.8594,0.4527,-0.1576,4.1463,-55.3659,35.7927
1595879428,0.9093,0.4066,-0.1605,2.7439,-64.6341,35.9146
1595879428,0.9761,0.4092,-0.1591,4.4512,-72.5000,35.6707
1595879428,0.9943,0.4202,-0.1713,7.8659,-74.2073,35.0000
1595879428,0.9474,0.4318,-0.2072,9.3902,-69.0854,34.0854
1595879428,0.8892,0.4485,-0.2267,9.9390,-62.7439,34.0244
1595879428,0.8879,0.4377,-0.2368,9.5122,-60.1220,33.8415
1595879428,0.9178,0.4229,-0.2491,9.2073,-57.9268,32.4390
1595879428,0.9134,0.4114,-0.2638,10.1220,-51.1585,30.9756
1595879428,0.8661,0.4025,-0.2898,11.2805,-38.1098,29.8780
1595879428,0.8296,0.4120,-0.2911,12.6220,-24.5122,28.4146
1595879428,0.8332,0.4193,-0.2808,13.0488,-14.5732,26.1585
1595879428,0.8619,0.4214,-0.2639,12.6829,-6.8902,23.1707
1595879428,0.8873,0.4294,-0.2344,12.0122,-0.1829,20.2439
1595879428,0.8759,0.4279,-0.2072,11.4024,5.3659,17.5000
1595879428,0.8629,0.4213,-0.1894,9.8780,7.6829,14.8780
1595879428,0.8344,0.4317,-0.1765,7.9268,6.0976,13.2927
1595879428,0.8439,0.4205,-0.1317,4.2683,2.7439,11.7683
1595879428,0.8984,0.4305,-0.1599,-0.4268,0.0610,11.4024
1595879428,0.8976,0.4263,-0.1780,-2.4390,4.4512,11.8293
1595879428,0.8145,0.4051,-0.2249,-4.0854,9.1463,11.0366
1595879428,0.8093,0.4030,-0.2461,-6.0976,11.5244,10.3049
1595879428,0.8478,0.4300,-0.2322,-6.5244,9.3293,9.3293
1595879428,0.8839,0.4672,-0.2142,-6.4634,5.5488,7.1341
1595879428,0.8923,0.4971,-0.2171,-7.5000,4.1463,2.6829
1595879428,0.9031,0.5381,-0.2346,-9.1463,5.9146,-2.1341
1595879428,0.9112,0.5836,-0.2462,-10.6098,10.6098,-6.8293
1595879428,0.8811,0.6174,-0.2471,-12.0122,17.0732,-11.7683
1595879428,0.8558,0.6225,-0.2421,-12.6220,22.7439,-17.9268
1595879428,0.8730,0.6310,-0.1966,-12.9268,25.3049,-25.3049
1595879428,0.9044,0.6542,-0.1501,-12.3780,25.3049,-30.3659
1595879428,0.8943,0.6708,-0.1262,-11.2195,26.3415,-33.7805
1595879428,0.8583,0.6834,-0.1315,-10.6098,28.4756,-37.8659
1595879428,0.8178,0.6982,-0.1467,-9.8171,28.7805,-42.2561
1595879428,0.8298,0.7341,-0.1331,-6.7683,23.1707,-46.1585
1595879428,0.8597,0.7775,-0.1041,-3.5366,15.9756,-49.1463
1595879428,0.8569,0.7900,-0.0986,-3.4146,13.8415,-50.7317
1595879428,0.8339,0.7925,-0.0995,-4.4512,19.8780,-53.4146
1595879428,0.8029,0.7961,-0.0930,-3.9634,29.2073,-56.2195
1595879428,0.7817,0.7841,-0.0893,-2.9268,37.5610,-58.7195
1595879428,0.7657,0.7773,-0.0691,-1.7073,43.8415,-61.2805
1595879428,0.7413,0.7689,-0.0572,-0.0610,47.8659,-63.1098
1595879428,0.6989,0.7563,-0.0368,1.5854,53.5366,-64.5732
1595879428,0.6455,0.7555,-0.0117,4.3902,58.5976,-65.6707
1595879428,0.6234,0.7639,0.0109,7.8049,61.4634,-66.2195
1595879428,0.6221,0.7740,0.0406,9.8780,65.0000,-66.1585
1595879428,0.6102,0.7797,0.0344,10.8537,70.8537,-65.6098
1595879428,0.5818,0.7726,0.0353,12.6829,78.2927,-65.0610
1595879428,0.5757,0.7783,0.0376,15.0610,83.7805,-64.5732
1595879428,0.5803,0.8038,0.0607,17.7439,87.2561,-63.2927
1595879428,0.5715,0.8024,0.0718,18.3537,90.8537,-61.9512
1595879428,0.5206,0.8069,0.0698,17.6829,95.0000,-61.5244
1595879428,0.4868,0.8076,0.0783,18.1707,95.9756,-61.1585
1595879428,0.4728,0.8119,0.0887,17.6220,92.0122,-60.5488
1595879428,0.4481,0.8349,0.0974,17.6829,84.5732,-58.3537
