time,ax,ay,az,gx,gy,gz
1595879405,-0.9902,0.0518,0.0911,-0.2439,0.0000,-0.1220
1595879405,-0.9968,0.0517,0.0901,-0.2439,-0.0610,-0.1220
1595879405,-0.9963,0.0500,0.0941,-0.3049,-0.0610,-0.0610
1595879405,-0.9940,0.0485,0.0928,-0.2439,-0.0610,-0.0610
1595879405,-0.9952,0.0514,0.0918,-0.3049,0.0000,-0.0610
1595879405,-0.9955,0.0491,0.0912,-0.3049,0.0000,-0.1829
1595879405,-0.9954,0.0477,0.0905,-0.2439,-0.0610,-0.0610
1595879405,-0.9968,0.0492,0.0901,-0.1220,-0.0610,-0.1829
1595879405,-0.9976,0.0506,0.0919,-0.3049,-0.1220,-0.1220
1595879405,-0.9952,0.0508,0.0928,-0.3659,-0.0610,0.0000
1595879405,-0.9957,0.0496,0.0921,-0.3049,0.0000,-0.0610
1595879405,-0.9977,0.0516,0.0898,-0.2439,0.0000,-0.1220
1595879405,-0.9978,0.0504,0.0907,-0.3049,-0.0610,-0.0610
1595879405,-0.9957,0.0500,0.0908,-0.3659,0.0000,-0.1220
1595879405,-0.9942,0.0510,0.0923,-0.2439,-0.0610,-0.1220
1595879405,-0.9958,0.0494,0.0915,-0.2439,0.0000,-0.0610
1595879405,-0.9963,0.0485,0.0920,-0.3659,-0.0610,-0.0610
1595879405,-0.9956,0.0504,0.0914,-0.3049,-0.0610,-0.1829
1595879405,-0.9964,0.0490,0.0928,-0.3049,0.0000,-0.1220
1595879405,-0.9969,0.0500,0.0905,-0.3049,-0.0610,-0.0610
1595879405,-0.9960,0.0488,0.0920,-0.3659,-0.0610,-0.0610
1595879405,-0.9960,0.0497,0.0923,-0.3659,-0.0610,-0.1220
1595879405,-0.9978,0.0515,0.0914,-0.2439,-0.0610,-0.1220
1595879405,-0.9983,0.0507,0.0900,-0.2439,-0.0610,-0.0610
1595879405,-0.9949,0.0513,0.0916,-0.3049,-0.0610,-0.0610
1595879405,-0.9963,0.0501,0.0894,-0.2439,0.0610,-0.0610
1595879405,-0.9976,0.0507,0.0901,-0.3049,-0.0610,-0.1220
1595879405,-0.9953,0.0497,0.0923,-0.3049,-0.0610,-0.1220
1595879405,-0.9955,0.0502,0.0923,-0.3049,-0.1220,-0.0610
1595879405,-0.9954,0.0500,0.0920,-0.3049,0.0000,0.0000
1595879405,-0.9955,0.0524,0.0908,-0.3049,0.0000,0.1220
1595879405,-0.9942,0.0519,0.0906,-0.3049,-0.0610,0.0000
1595879405,-0.9962,0.0507,0.0922,-0.2439,0.0000,-0.1829
1595879405,-0.9959,0.0486,0.0933,-0.2439,-0.0610,-0.1829
1595879405,-0.9954,0.0493,0.0933,-0.2439,0.0000,-0.1220
1595879405,-0.9955,0.0488,0.0955,-0.3049,0.0000,-0.1220
1595879405,-0.9963,0.0496,0.0927,-0.3049,-0.0610,-0.1220
1595879405,-0.9944,0.0526,0.0920,-0.2439,-0.0610,-0.0610
1595879405,-0.9946,0.0521,0.0922,-0.2439,-0.0610,-0.0610
1595879405,-0.9944,0.0503,0.0908,-0.4268,0.0000,0.0000
1595879405,-0.9973,0.0504,0.0934,-0.3659,-0.0610,-0.0610
1595879405,-0.9955,0.0507,0.0951,-0.3049,-0.0610,-0.1220
1595879405,-0.9966,0.0492,0.0937,-0.3049,-0.0610,-0.1829
1595879405,-0.9959,0.0483,0.0933,-0.3049,0.0000,-0.1220
1595879405,-0.9957,0.0496,0.0908,-0.3049,-0.0610,-0.0610
1595879405,-0.9946,0.0502,0.0865,-0.2439,-0.0610,0.0000
1595879405,-0.9956,0.0495,0.0925,-0.3659,0.0000,-0.1220
1595879405,-0.9967,0.0505,0.0923,-0.2439,0.0000,-0.1829
1595879405,-0.9954,0.0501,0.0920,-0.2439,0.0000,-0.1220
1595879405,-0.9971,0.0498,0.0925,-0.3049,-0.0610,-0.1829
1595879405,-0.9958,0.0510,0.0929,-0.3659,0.0000,-0.1220
1595879405,-0.9983,0.0503,0.0911,-0.2439,-0.0610,0.0000
1595879405,-0.9971,0.0500,0.0921,-0.3049,0.0000,0.0000
1595879405,-0.9948,0.0489,0.0913,-0.3049,0.0000,0.0000
1595879405,-0.9960,0.0502,0.0913,-0.3659,-0.0610,-0.0610
1595879405,-0.9947,0.0494,0.0923,-0.2439,-0.0610,-0.1220
1595879405,-0.9957,0.0475,0.0945,-0.2439,0.0000,-0.1220
1595879405,-0.9953,0.0506,0.0919,-0.3659,0.0000,-0.0610
1595879405,-0.9955,0.0500,0.0902,-0.3659,-0.0610,-0.1829
1595879405,-0.9951,0.0480,0.0920,-0.3049,0.0000,-0.1220
1595879405,-0.9943,0.0509,0.0914,-0.3049,-0.0610,-0.1220
1595879405,-0.9965,0.0497,0.0923,-0.2439,-0.0610,-0.1220
1595879405,-0.9953,0.0511,0.0939,-0.3049,0.0000,-0.0610
1595879405,-0.9936,0.0515,0.0930,-0.3049,-0.0610,-0.0610
1595879405,-0.9960,0.0501,0.0923,-0.3049,-0.1220,0.0000
1595879405,-0.9965,0.0513,0.0924,-0.3049,-0.1220,-0.0610
1595879405,-0.9947,0.0496,0.0916,-0.3659,-0.0610,-0.1220
1595879405,-0.9965,0.0482,0.0912,-0.3659,-0.0610,-0.1220
1595879405,-0.9968,0.0474,0.0917,-0.3659,-0.0610,-0.1220
1595879405,-0.9976,0.0486,0.0932,-0.2439,-0.0610,-0.1220
1595879405,-0.9958,0.0507,0.0933,-0.1829,-0.0610,-0.1829
1595879405,-0.9948,0.0497,0.0920,-0.3049,-0.0610,0.0000
1595879405,-0.9935,0.0496,0.0922,-0.3659,0.0000,-0.0610
1595879405,-0.9972,0.0493,0.0941,-0.2439,-0.0610,-0.0610
1595879405,-0.9971,0.0492,0.0938,-0.2439,-0.0610,-0.1220
1595879405,-0.9955,0.0504,0.0929,-0.2439,0.0000,-0.1829
1595879405,-0.9938,0.0498,0.0930,-0.3049,-0.1220,-0.1829
1595879405,-0.9965,0.0516,0.0921,-0.2439,-0.0610,-0.0610
1595879405,-0.9967,0.0516,0.0898,-0.3049,-0.0610,-0.0610
1595879405,-0.9968,0.0499,0.0923,-0.2439,0.0000,-0.0610
1595879405,-0.9949,0.0483,0.0923,-0.2439,-0.0610,-0.1220
1595879405,-0.9930,0.0509,0.0914,-0.2439,-0.0610,-0.1829
1595879405,-0.9958,0.0501,0.0905,-0.2439,-0.0610,-0.1220
1595879405,-0.9954,0.0502,0.0899,-0.1829,-0.0610,-0.1220
1595879405,-0.9953,0.0519,0.0904,-0.3049,-0.0610,-0.0610
1595879405,-0.9960,0.0492,0.0921,-0.3049,-0.0610,0.0000
1595879405,-0.9960,0.0512,0.0919,-0.2439,-0.0610,-0.0610
1595879405,-0.9949,0.0526,0.0923,-0.1829,-0.0610,-0.1220
1595879405,-0.9947,0.0508,0.0941,-0.1829,0.0000,-0.0610
1595879405,-0.9951,0.0494,0.0931,-0.3049,0.0000,-0.1829
1595879406,-0.9955,0.0507,0.0928,-0.1829,-0.0610,-0.1220
1595879406,-0.9951,0.0507,0.0919,-0.2439,0.0000,0.0000
1595879406,-0.9954,0.0531,0.0921,-0.3659,0.0000,0.0000
1595879406,-0.9971,0.0508,0.0939,-0.2439,-0.1220,0.0000
1595879406,-0.9959,0.0485,0.0933,-0.3049,-0.0610,-0.0610
1595879406,-0.9952,0.0522,0.0928,-0.3049,0.0000,-0.1220
1595879406,-0.9949,0.0502,0.0936,-0.3659,-0.0610,-0.1220
1595879406,-0.9957,0.0514,0.0917,-0.3049,0.0000,-0.1829
1595879406,-0.9952,0.0480,0.0917,-0.3049,0.0000,-0.0610
1595879406,-0.9947,0.0497,0.0933,-0.3049,0.0000,-0.0610
1595879406,-0.9961,0.0518,0.0927,-0.2439,-0.0610,-0.0610
1595879406,-0.9962,0.0503,0.0904,-0.3049,-0.0610,0.0000
1595879406,-0.9957,0.0496,0.0921,-0.3049,0.0000,-0.0610
1595879406,-0.9946,0.0486,0.0916,-0.2439,0.0000,-0.1220
1595879406,-0.9963,0.0493,0.0953,-0.2439,-0.0610,-0.1220
1595879406,-0.9952,0.0484,0.0939,-0.3049,-0.0610,-0.1220
1595879406,-0.9962,0.0497,0.0887,-0.3049,-0.1220,-0.1829
1595879406,-0.9946,0.0514,0.0912,-0.3049,-0.1220,-0.0610
1595879406,-0.9953,0.0487,0.0953,-0.3049,-0.0610,0.0000
1595879406,-0.9967,0.0515,0.0924,-0.2439,-0.0610,-0.1220
1595879406,-0.9951,0.0510,0.0898,-0.3049,-0.0610,-0.1829
1595879406,-0.9940,0.0490,0.0904,-0.2439,0.0000,-0.1829
1595879406,-0.9941,0.0498,0.0927,-0.3049,0.0000,-0.0610
1595879406,-0.9952,0.0502,0.0959,-0.3049,-0.0610,-0.0610
1595879406,-0.9960,0.0501,0.0925,-0.2439,-0.0610,0.0000
1595879406,-0.9954,0.0493,0.0931,-0.2439,-0.0610,-0.0610
1595879406,-0.9947,0.0521,0.0938,-0.1829,-0.0610,-0.1220
1595879406,-0.9969,0.0496,0.0958,-0.2439,-0.0610,-0.1829
1595879406,-0.9974,0.0483,0.0920,-0.3049,0.0000,-0.1829
1595879406,-0.9960,0.0502,0.0947,-0.3659,0.0000,-0.0610
1595879406,-0.9959,0.0524,0.0938,-0.3049,-0.0610,-0.0610
1595879406,-0.9961,0.0484,0.0926,-0.3049,-0.0610,0.0610
1595879406,-0.9952,0.0492,0.0925,-0.3659,-0.0610,-0.0610
1595879406,-0.9973,0.0518,0.0945,-0.3049,-0.0610,0.0000
1595879406,-0.9953,0.0483,0.0919,-0.3049,-0.0610,-0.0610
1595879406,-0.9951,0.0486,0.0924,-0.2439,-0.0610,-0.1829
1595879406,-0.9959,0.0491,0.0925,-0.3049,-0.0610,-0.1829
1595879406,-0.9968,0.0510,0.0920,-0.4268,-0.0610,-0.0610
1595879406,-0.9965,0.0500,0.0903,-0.2439,-0.0610,0.0000
1595879406,-0.9959,0.0505,0.0934,-0.3049,-0.0610,0.0610
1595879406,-0.9941,0.0505,0.0941,-0.3659,-0.1220,0.0000
1595879406,-0.9974,0.0496,0.0942,-0.2439,-0.0610,-0.1220
1595879406,-0.9965,0.0500,0.0920,-0.3049,-0.0610,-0.2439
1595879406,-0.9960,0.0496,0.0912,-0.4268,0.0000,-0.1829
1595879406,-0.9958,0.0492,0.0913,-0.4268,-0.0610,-0.1220
1595879406,-0.9949,0.0502,0.0942,-0.3049,-0.0610,-0.0610
1595879406,-0.9953,0.0487,0.0930,-0.3049,-0.0610,-0.0610
1595879406,-0.9955,0.0499,0.0923,-0.2439,-0.1220,-0.0610
1595879406,-0.9966,0.0486,0.0942,-0.1829,-0.0610,-0.0610
1595879406,-0.9963,0.0486,0.0932,-0.2439,0.0000,-0.0610
1595879406,-0.9953,0.0505,0.0930,-0.3049,-0.0610,-0.0610
1595879406,-0.9960,0.0505,0.0908,-0.3049,-0.0610,-0.0610
1595879406,-0.9957,0.0500,0.0915,-0.3049,0.0000,-0.0610
1595879406,-0.9950,0.0510,0.0928,-0.3659,-0.0610,-0.1220
1595879406,-0.9962,0.0493,0.0943,-0.4268,0.0000,-0.1829
1595879406,-0.9952,0.0485,0.0947,-0.3049,0.0000,-0.1220
1595879406,-0.9962,0.0503,0.0933,-0.2439,-0.0610,-0.0610
1595879406,-0.9965,0.0496,0.0922,-0.3049,-0.0610,0.0000
1595879406,-0.9962,0.0490,0.0900,-0.2439,-0.0610,0.0000
1595879406,-0.9936,0.0501,0.0920,-0.2439,-0.1220,-0.0610
1595879406,-0.9957,0.0516,0.0925,-0.3049,-0.1220,0.0000
1595879406,-0.9959,0.0511,0.0933,-0.4268,-0.0610,-0.0610
1595879406,-0.9952,0.0510,0.0941,-0.2439,-0.0610,-0.1220
1595879406,-0.9952,0.0518,0.0942,-0.2439,-0.1220,-0.1220
1595879406,-0.9962,0.0512,0.0920,-0.1829,0.0000,0.0000
1595879406,-0.9953,0.0504,0.0918,-0.3049,-0.0610,-0.0610
1595879406,-0.9957,0.0491,0.0931,-0.3659,-0.0610,0.0610
1595879406,-0.9961,0.0496,0.0924,-0.3659,-0.0610,0.0000
1595879406,-0.9942,0.0514,0.0934,-0.3049,-0.0610,0.0000
1595879406,-0.9954,0.0489,0.0941,-0.3049,-0.0610,-0.1829
1595879406,-0.9950,0.0491,0.0930,-0.3049,0.0000,-0.0610
1595879406,-0.9957,0.0491,0.0920,-0.3049,0.0000,0.0000
1595879406,-0.9952,0.0501,0.0936,-0.3049,0.0000,-0.0610
1595879406,-0.9953,0.0499,0.0923,-0.2439,0.0000,-0.0610
1595879406,-0.9951,0.0495,0.0917,-0.1829,0.0000,-0.0610
1595879406,-0.9955,0.0505,0.0930,-0.3659,0.0000,-0.0610
1595879406,-0.9955,0.0508,0.0933,-0.3049,-0.0610,-0.0610
1595879406,-0.9959,0.0486,0.0942,-0.3049,-0.0610,-0.1220
1595879406,-0.9968,0.0494,0.0919,-0.3049,0.0000,-0.1220
1595879406,-0.9965,0.0502,0.0907,-0.3049,0.0000,-0.1220
1595879406,-0.9950,0.0488,0.0928,-0.3659,-0.0610,0.0000
1595879406,-0.9957,0.0480,0.0942,-0.3049,-0.0610,-0.0610
1595879406,-0.9952,0.0500,0.0907,-0.2439,0.0000,-0.0610
1595879406,-0.9946,0.0511,0.0924,-0.3049,0.0000,-0.0610
1595879406,-0.9967,0.0496,0.0927,-0.3049,-0.0610,-0.0610
1595879406,-0.9960,0.0487,0.0911,-0.3049,-0.0610,-0.1220
1595879406,-0.9946,0.0478,0.0901,-0.3049,-0.0610,-0.0610
1595879406,-0.9955,0.0497,0.0941,-0.3659,0.0000,-0.0610
1595879406,-0.9940,0.0501,0.0941,-0.3049,0.0000,-0.1220
1595879406,-0.9928,0.0484,0.0927,-0.2439,0.0000,-0.1829
1595879406,-0.9958,0.0504,0.0914,-0.2439,-0.0610,-0.1829
1595879406,-0.9961,0.0505,0.0936,-0.3049,-0.0610,-0.1829
1595879406,-0.9951,0.0504,0.0927,-0.2439,0.0000,-0.1829
1595879406,-0.9954,0.0509,0.0940,-0.3049,-0.0610,-0.0610
1595879406,-0.9945,0.0495,0.0940,-0.3049,0.0000,0.0610
1595879406,-0.9951,0.0519,0.0926,-0.3659,-0.0610,-0.0610
1595879406,-0.9962,0.0484,0.0909,-0.3049,-0.1220,-0.1220
1595879406,-0.9959,0.0484,0.0939,-0.3049,0.0000,-0.1220
1595879406,-0.9946,0.0490,0.0933,-0.3049,0.0000,-0.1220
1595879406,-0.9947,0.0483,0.0938,-0.3049,-0.0610,-0.0610
1595879406,-0.9935,0.0496,0.0945,-0.3049,-0.0610,0.0000
1595879407,-0.9950,0.0496,0.0930,-0.2439,0.0000,-0.0610
1595879407,-0.9958,0.0493,0.0921,-0.2439,-0.0610,-0.1220
1595879407,-0.9969,0.0504,0.0931,-0.3049,0.0000,-0.1220
1595879407,-0.9940,0.0491,0.0930,-0.2439,0.0610,-0.1220
1595879407,-0.9953,0.0491,0.0925,-0.3049,-0.0610,-0.1220
1595879407,-0.9960,0.0488,0.0939,-0.4268,-0.0610,-0.1220
1595879407,-0.9970,0.0488,0.0970,-0.3659,0.0000,-0.1220
1595879407,-0.9941,0.0475,0.0942,-0.3049,-0.0610,0.0000
1595879407,-0.9939,0.0510,0.0909,-0.3659,0.0000,0.0610
1595879407,-0.9945,0.0502,0.0898,-0.2439,0.0000,-0.0610
1595879407,-0.9958,0.0494,0.0938,-0.2439,0.0000,-0.1829
1595879407,-0.9959,0.0493,0.0914,-0.3049,-0.1220,-0.1829
1595879407,-0.9964,0.0485,0.0932,-0.3049,0.0000,-0.2439
1595879407,-0.9946,0.0514,0.0937,-0.3659,0.0000,-0.1220
1595879407,-0.9956,0.0498,0.0936,-0.3049,0.0000,0.0000
1595879407,-0.9951,0.0491,0.0951,-0.3049,0.0610,-0.0610
1595879407,-0.9954,0.0495,0.0934,-0.3659,0.0000,-0.0610
1595879407,-0.9957,0.0507,0.0939,-0.2439,0.0000,-0.0610
1595879407,-0.9960,0.0515,0.0915,-0.3049,0.0000,-0.0610
1595879407,-0.9969,0.0504,0.0907,-0.3049,-0.0610,-0.0610
1595879407,-0.9956,0.0491,0.0919,-0.3659,-0.0610,-0.1220
1595879407,-0.9961,0.0494,0.0938,-0.2439,-0.0610,-0.0610
1595879407,-0.9940,0.0494,0.0930,-0.1829,-0.0610,0.0000
1595879407,-0.9942,0.0484,0.0943,-0.1829,-0.1220,0.0000
1595879407,-0.9940,0.0505,0.0947,-0.2439,-0.0610,0.0000
1595879407,-0.9968,0.0493,0.0942,-0.3049,-0.0610,0.0000
1595879407,-0.9958,0.0482,0.0948,-0.2439,-0.0610,-0.1220
1595879407,-0.9938,0.0490,0.0942,-0.3049,-0.0610,-0.1829
1595879407,-0.9956,0.0500,0.0927,-0.3659,-0.1220,-0.1829
1595879407,-0.9968,0.0482,0.0936,-0.3049,-0.0610,-0.0610
1595879407,-0.9984,0.0515,0.0923,-0.3049,-0.0610,-0.0610
1595879407,-0.9949,0.0490,0.0923,-0.2439,0.0000,-0.0610
1595879407,-0.9952,0.0483,0.0931,-0.2439,-0.0610,0.0000
1595879407,-0.9948,0.0508,0.0925,-0.3659,0.0000,0.0000
1595879407,-0.9963,0.0519,0.0909,-0.3049,-0.0610,-0.0610
1595879407,-0.9948,0.0497,0.0924,-0.3049,0.0000,-0.1220
1595879407,-0.9958,0.0499,0.0930,-0.2439,-0.0610,-0.1220
1595879407,-0.9935,0.0496,0.0923,-0.2439,-0.0610,-0.1220
1595879407,-0.9955,0.0496,0.0936,-0.3049,-0.0610,-0.1220
1595879407,-0.9954,0.0499,0.0922,-0.3049,0.0000,-0.1220
1595879407,-0.9933,0.0502,0.0941,-0.2439,-0.0610,-0.0610
1595879407,-0.9940,0.0496,0.0941,-0.3049,-0.1220,-0.0610
1595879407,-0.9976,0.0507,0.0913,-0.3049,-0.0610,-0.0610
1595879407,-0.9960,0.0504,0.0925,-0.3049,-0.0610,-0.0610
1595879407,-0.9958,0.0503,0.0950,-0.3659,0.0000,-0.0610
1595879407,-0.9965,0.0505,0.0932,-0.3659,0.0000,-0.1220
1595879407,-0.9949,0.0498,0.0891,-0.2439,-0.0610,-0.1220
1595879407,-0.9940,0.0499,0.0900,-0.3049,0.0000,-0.1220
1595879407,-0.9963,0.0497,0.0930,-0.3049,0.0000,-0.0610
1595879407,-0.9955,0.0491,0.0923,-0.3659,-0.0610,-0.0610
1595879407,-0.9946,0.0513,0.0927,-0.3049,-0.0610,-0.0610
1595879407,-0.9954,0.0501,0.0919,-0.3659,0.0000,-0.1220
1595879407,-0.9951,0.0504,0.0924,-0.3049,0.0610,-0.0610
1595879407,-0.9956,0.0502,0.0918,-0.3049,-0.0610,-0.1220
1595879407,-0.9952,0.0490,0.0934,-0.2439,-0.0610,-0.1220
1595879407,-0.9964,0.0493,0.0924,-0.3659,-0.0610,-0.1829
1595879407,-0.9980,0.0502,0.0925,-0.3049,-0.0610,-0.0610
1595879407,-0.9968,0.0494,0.0943,-0.3049,0.0000,-0.0610
1595879407,-0.9949,0.0498,0.0943,-0.3049,-0.0610,-0.0610
1595879407,-0.9946,0.0515,0.0919,-0.3049,0.0000,-0.0610
1595879407,-0.9951,0.0513,0.0926,-0.3049,0.0000,-0.1220
1595879407,-0.9963,0.0507,0.0930,-0.3659,-0.0610,-0.1220
1595879407,-0.9980,0.0506,0.0922,-0.2439,-0.0610,-0.1829
1595879407,-0.9964,0.0525,0.0929,-0.2439,-0.0610,-0.1220
1595879407,-0.9963,0.0490,0.0934,-0.3049,-0.0610,-0.1220
1595879407,-0.9956,0.0482,0.0941,-0.2439,-0.0610,-0.0610
1595879407,-0.9940,0.0494,0.0933,-0.2439,-0.0610,-0.0610
1595879407,-0.9948,0.0508,0.0950,-0.3049,-0.0610,-0.0610
1595879407,-0.9935,0.0500,0.0927,-0.2439,-0.0610,-0.0610
1595879407,-0.9962,0.0483,0.0911,-0.2439,0.0000,-0.1220
1595879407,-0.9958,0.0502,0.0924,-0.3049,-0.0610,-0.1829
1595879407,-0.9969,0.0507,0.0913,-0.2439,-0.0610,-0.1829
1595879407,-0.9961,0.0504,0.0939,-0.2439,-0.0610,-0.1220
1595879407,-0.9958,0.0496,0.0930,-0.4268,0.0000,0.0000
1595879407,-0.9947,0.0493,0.0931,-0.3659,-0.0610,-0.0610
1595879407,-0.9962,0.0486,0.0938,-0.3049,0.0000,-0.1220
1595879407,-0.9968,0.0501,0.0927,-0.2439,-0.0610,-0.1220
1595879407,-0.9957,0.0513,0.0930,-0.2439,-0.0610,0.0000
1595879407,-0.9958,0.0497,0.0925,-0.3049,0.0000,0.0000
1595879407,-0.9955,0.0500,0.0933,-0.3049,0.0000,-0.1220
1595879407,-0.9948,0.0497,0.0919,-0.2439,-0.0610,-0.0610
1595879407,-0.9951,0.0504,0.0930,-0.3049,0.0000,-0.1829
1595879407,-0.9967,0.0484,0.0930,-0.3659,0.0000,-0.1220
1595879407,-0.9963,0.0499,0.0923,-0.3659,0.0000,-0.0610
1595879407,-0.9955,0.0494,0.0933,-0.3049,0.0000,-0.1220
1595879407,-0.9960,0.0491,0.0932,-0.2439,0.0000,-0.1220
1595879407,-0.9950,0.0499,0.0939,-0.3049,0.0000,-0.1220
1595879407,-0.9948,0.0508,0.0925,-0.1829,-0.0610,-0.0610
1595879407,-0.9952,0.0490,0.0927,-0.2439,-0.0610,-0.1220
1595879407,-0.9958,0.0506,0.0912,-0.3049,-0.0610,-0.0610
1595879407,-0.9961,0.0505,0.0936,-0.3659,-0.0610,-0.1220
1595879407,-0.9963,0.0494,0.0921,-0.3659,-0.0610,-0.0610
1595879407,-0.9982,0.0490,0.0930,-0.3049,-0.0610,-0.0610
1595879407,-0.9955,0.0482,0.0938,-0.3049,0.0000,-0.1220
1595879407,-0.9948,0.0481,0.0940,-0.2439,-0.0610,-0.1829
1595879407,-0.9954,0.0483,0.0921,-0.2439,-0.0610,-0.1829
1595879407,-0.9958,0.0502,0.0925,-0.2439,-0.0610,-0.1220
1595879407,-0.9942,0.0494,0.0936,-0.3049,-0.1220,-0.0610
1595879407,-0.9966,0.0508,0.0927,-0.3049,-0.1829,0.0000
1595879407,-0.9948,0.0515,0.0927,-0.2439,-0.0610,0.0610
1595879407,-0.9946,0.0516,0.0923,-0.2439,-0.0610,0.0000
1595879407,-0.9941,0.0511,0.0927,-0.3049,0.0000,-0.0610
1595879408,-0.9961,0.0482,0.0931,-0.3049,0.0000,-0.1829
1595879408,-0.9966,0.0478,0.0923,-0.3049,0.0000,-0.1220
1595879408,-0.9955,0.0492,0.0940,-0.2439,0.0000,-0.1220
1595879408,-0.9958,0.0499,0.0931,-0.3049,-0.0610,-0.0610
1595879408,-0.9951,0.0491,0.0911,-0.2439,-0.0610,0.0000
1595879408,-0.9961,0.0502,0.0936,-0.1829,-0.0610,-0.0610
1595879408,-0.9946,0.0518,0.0950,-0.1829,-0.1220,-0.0610
1595879408,-0.9962,0.0485,0.0936,-0.3659,-0.0610,-0.0610
1595879408,-0.9947,0.0482,0.0939,-0.3659,-0.0610,-0.0610
1595879408,-0.9957,0.0509,0.0919,-0.4268,0.0000,0.0000
1595879408,-0.9977,0.0499,0.0909,-0.3049,0.0000,-0.1220
1595879408,-0.9971,0.0509,0.0922,-0.2439,0.0000,-0.1220
1595879408,-0.9956,0.0515,0.0934,-0.2439,0.0000,-0.0610
1595879408,-0.9948,0.0511,0.0933,-0.3659,0.0000,-0.1220
1595879408,-0.9943,0.0460,0.0930,-0.3659,-0.0610,-0.1220
1595879408,-0.9936,0.0487,0.0922,-0.2439,-0.0610,-0.1220
1595879408,-0.9947,0.0510,0.0914,-0.2439,-0.0610,0.0610
1595879408,-0.9962,0.0504,0.0945,-0.2439,-0.0610,0.1220
1595879408,-0.9955,0.0488,0.0916,-0.3659,-0.0610,0.0610
1595879408,-0.9963,0.0496,0.0903,-0.3049,-0.0610,-0.1220
1595879408,-0.9965,0.0505,0.0916,-0.2439,-0.1220,-0.1829
1595879408,-0.9934,0.0488,0.0930,-0.3049,-0.0610,-0.1829
1595879408,-0.9945,0.0488,0.0940,-0.3049,0.0000,-0.1220
1595879408,-0.9953,0.0475,0.0941,-0.2439,0.0610,-0.0610
1595879408,-0.9954,0.0483,0.0933,-0.2439,0.0000,-0.0610
1595879408,-0.9948,0.0493,0.0922,-0.3049,0.0610,-0.0610
1595879408,-0.9973,0.0506,0.0892,-0.3659,0.0610,-0.0610
1595879408,-0.9968,0.0501,0.0917,-0.3659,-0.0610,0.0000
1595879408,-0.9940,0.0488,0.0940,-0.3049,-0.0610,-0.1220
1595879408,-0.9939,0.0504,0.0930,-0.3659,-0.0610,-0.1220
1595879408,-0.9945,0.0506,0.0928,-0.3659,0.0000,-0.1220
1595879408,-0.9965,0.0494,0.0913,-0.3659,-0.0610,-0.1220
1595879408,-0.9962,0.0480,0.0917,-0.2439,0.0000,-0.0610
1595879408,-0.9943,0.0510,0.0936,-0.2439,-0.0610,-0.0610
1595879408,-0.9952,0.0493,0.0931,-0.3659,-0.0610,-0.1220
1595879408,-0.9955,0.0481,0.0917,-0.3049,-0.0610,-0.1829
1595879408,-0.9957,0.0471,0.0940,-0.2439,0.0000,-0.0610
1595879408,-0.9957,0.0487,0.0934,-0.2439,-0.0610,-0.0610
1595879408,-0.9966,0.0506,0.0935,-0.3049,0.0000,0.0610
1595879408,-0.9941,0.0516,0.0928,-0.3049,0.0000,0.0000
1595879408,-0.9943,0.0507,0.0925,-0.2439,-0.0610,0.0000
1595879408,-0.9946,0.0482,0.0929,-0.2439,-0.0610,-0.0610
1595879408,-0.9939,0.0481,0.0920,-0.3659,0.0000,-0.1829
1595879408,-0.9953,0.0496,0.0919,-0.3049,0.0000,-0.2439
1595879408,-0.9968,0.0477,0.0928,-0.3049,0.0610,-0.1829
1595879408,-0.9949,0.0486,0.0925,-0.2439,0.0000,-0.1220
1595879408,-0.9950,0.0496,0.0933,-0.3049,-0.1220,-0.0610
1595879408,-0.9938,0.0493,0.0934,-0.3049,0.0000,0.0610
1595879408,-0.9943,0.0497,0.0937,-0.3049,-0.0610,0.0610
1595879408,-0.9967,0.0480,0.0919,-0.3049,0.0000,0.0610
1595879408,-0.9940,0.0482,0.0936,-0.3659,0.0610,-0.1220
1595879408,-0.9933,0.0510,0.0934,-0.3049,0.0000,-0.1220
1595879408,-0.9979,0.0505,0.0931,-0.3049,-0.0610,-0.1220
1595879408,-0.9962,0.0483,0.0923,-0.3049,-0.0610,-0.1220
1595879408,-0.9975,0.0494,0.0922,-0.3659,0.0000,0.0000
1595879408,-0.9947,0.0497,0.0931,-0.2439,0.0000,0.0000
1595879408,-0.9953,0.0477,0.0911,-0.3049,0.0000,-0.0610
1595879408,-0.9971,0.0489,0.0944,-0.3049,-0.0610,-0.1829
1595879408,-0.9970,0.0499,0.0950,-0.3659,0.0610,-0.0610
1595879408,-0.9954,0.0497,0.0947,-0.3049,-0.0610,0.0610
1595879408,-0.9963,0.0508,0.0960,-0.2439,-0.0610,0.0610
1595879408,-0.9950,0.0517,0.0945,-0.3049,0.0000,-0.0610
1595879408,-0.9966,0.0511,0.0945,-0.3049,0.0000,-0.1829
1595879408,-0.9940,0.0507,0.0919,-0.2439,-0.0610,-0.1829
1595879408,-0.9960,0.0494,0.0933,-0.3659,-0.0610,-0.0610
1595879408,-0.9958,0.0510,0.0933,-0.2439,0.0000,-0.0610
1595879408,-0.9960,0.0500,0.0919,-0.3049,0.0000,-0.0610
1595879408,-0.9951,0.0500,0.0950,-0.3049,-0.0610,-0.0610
1595879408,-0.9959,0.0515,0.0954,-0.3049,0.0000,-0.0610
1595879408,-0.9957,0.0494,0.0938,-0.3049,0.0000,0.0000
1595879408,-0.9948,0.0493,0.0942,-0.3659,-0.1220,-0.0610
1595879408,-0.9954,0.0518,0.0931,-0.3659,0.0000,-0.0610
1595879408,-0.9932,0.0499,0.0918,-0.3049,0.0000,-0.1220
1595879408,-0.9951,0.0511,0.0928,-0.2439,0.0000,-0.1220
1595879408,-0.9946,0.0500,0.0941,-0.3659,0.0000,-0.0610
1595879408,-0.9942,0.0506,0.0942,-0.1829,-0.0610,-0.1220
1595879408,-0.9954,0.0510,0.0919,-0.1829,-0.0610,-0.1220
1595879408,-0.9958,0.0483,0.0925,-0.3049,-0.0610,-0.0610
1595879408,-0.9959,0.0492,0.0933,-0.3049,-0.0610,-0.1829
1595879408,-0.9947,0.0508,0.0935,-0.3049,0.0000,-0.1220
1595879408,-0.9966,0.0477,0.0938,-0.2439,0.0000,-0.0610
1595879408,-0.9969,0.0513,0.0941,-0.3659,0.0000,0.0000
1595879408,-0.9965,0.0522,0.0939,-0.1829,-0.0610,0.0000
1595879408,-0.9953,0.0506,0.0931,-0.2439,-0.0610,0.0610
1595879408,-0.9951,0.0493,0.0926,-0.3049,0.0610,-0.0610
1595879408,-0.9959,0.0486,0.0943,-0.2439,-0.0610,-0.1829
1595879408,-0.9938,0.0496,0.0933,-0.3049,-0.0610,-0.1829
1595879408,-0.9946,0.0487,0.0913,-0.2439,-0.0610,-0.0610
1595879408,-0.9958,0.0503,0.0912,-0.3049,-0.1220,-0.0610
1595879408,-0.9971,0.0485,0.0933,-0.3659,0.0000,-0.0610
1595879408,-0.9976,0.0504,0.0915,-0.2439,-0.0610,0.0000
1595879408,-0.9953,0.0499,0.0916,-0.3049,-0.0610,-0.0610
1595879408,-0.9966,0.0495,0.0939,-0.2439,-0.0610,-0.1220
1595879408,-0.9954,0.0479,0.0950,-0.2439,0.0000,-0.0610
1595879408,-0.9958,0.0504,0.0938,-0.3049,0.0000,-0.0610
1595879408,-0.9958,0.0496,0.0933,-0.3049,0.0000,-0.0610
1595879408,-0.9949,0.0485,0.0944,-0.3049,-0.0610,-0.0610
1595879408,-0.9953,0.0492,0.0942,-0.3049,-0.1220,-0.0610
1595879408,-0.9954,0.0486,0.0933,-0.3049,0.0000,-0.1220
1595879408,-0.9956,0.0471,0.0927,-0.3049,0.0000,-0.2439
1595879408,-0.9952,0.0495,0.0933,-0.3659,0.0000,-0.1220
1595879409,-0.9966,0.0501,0.0911,-0.2439,-0.1220,-0.0610
1595879409,-0.9948,0.0500,0.0908,-0.2439,-0.1220,0.0000
1595879409,-0.9960,0.0497,0.0942,-0.3049,-0.1220,0.0000
1595879409,-0.9947,0.0507,0.0951,-0.3049,-0.0610,-0.1220
1595879409,-0.9929,0.0499,0.0933,-0.3049,0.0000,-0.2439
1595879409,-0.9960,0.0490,0.0928,-0.4878,-0.0610,-0.1829
1595879409,-0.9969,0.0484,0.0927,-0.3049,0.0000,-0.0610
1595879409,-0.9968,0.0487,0.0940,-0.2439,0.0000,-0.0610
1595879409,-0.9960,0.0502,0.0931,-0.3659,-0.0610,0.0610
1595879409,-0.9973,0.0502,0.0939,-0.3049,-0.0610,-0.1220
1595879409,-0.9948,0.0500,0.0917,-0.2439,-0.0610,-0.1220
1595879409,-0.9946,0.0505,0.0939,-0.2439,0.0000,-0.0610
1595879409,-0.9969,0.0499,0.0938,-0.3049,0.0000,-0.1829
1595879409,-0.9955,0.0507,0.0927,-0.3049,0.0000,-0.0610
1595879409,-0.9973,0.0491,0.0905,-0.3049,0.0000,0.0000
1595879409,-0.9969,0.0480,0.0912,-0.3659,-0.0610,0.0000
1595879409,-0.9955,0.0490,0.0926,-0.3049,-0.0610,0.0000
1595879409,-0.9953,0.0493,0.0917,-0.2439,0.0000,-0.0610
1595879409,-0.9950,0.0510,0.0917,-0.3049,-0.0610,-0.1829
1595879409,-0.9962,0.0493,0.0922,-0.3049,-0.0610,-0.1829
1595879409,-0.9960,0.0488,0.0931,-0.2439,-0.1220,-0.1829
1595879409,-0.9967,0.0483,0.0920,-0.2439,-0.0610,-0.1220
1595879409,-0.9977,0.0494,0.0934,-0.3659,-0.0610,0.0000
1595879409,-0.9970,0.0501,0.0940,-0.3659,-0.0610,0.0000
1595879409,-0.9962,0.0480,0.0919,-0.3659,-0.0610,0.0000
1595879409,-0.9955,0.0482,0.0925,-0.3049,-0.0610,-0.0610
1595879409,-0.9971,0.0496,0.0958,-0.3049,-0.0610,-0.0610
1595879409,-0.9946,0.0502,0.0924,-0.3049,0.0000,-0.1829
1595879409,-0.9940,0.0500,0.0925,-0.2439,-0.0610,-0.1829
1595879409,-0.9958,0.0483,0.0922,-0.1829,-0.1220,-0.0610
1595879409,-0.9958,0.0491,0.0905,-0.3049,-0.0610,0.0000
1595879409,-0.9946,0.0510,0.0930,-0.3049,-0.0610,-0.0610
1595879409,-0.9964,0.0499,0.0941,-0.2439,-0.0610,0.0000
1595879409,-0.9958,0.0505,0.0930,-0.3659,-0.0610,0.0000
1595879409,-0.9952,0.0499,0.0939,-0.3049,-0.0610,-0.1220
1595879409,-0.9949,0.0499,0.0928,-0.2439,-0.0610,-0.0610
1595879409,-0.9962,0.0507,0.0933,-0.3659,0.0000,-0.1220
1595879409,-0.9960,0.0506,0.0948,-0.3049,-0.0610,-0.1220
1595879409,-0.9963,0.0488,0.0934,-0.2439,-0.0610,-0.1829
1595879409,-0.9951,0.0487,0.0923,-0.3049,-0.0610,-0.1220
1595879409,-0.9965,0.0506,0.0923,-0.3659,0.0000,-0.0610
1595879409,-0.9957,0.0519,0.0938,-0.3049,-0.0610,-0.0610
1595879409,-0.9957,0.0503,0.0952,-0.3659,-0.0610,-0.0610
1595879409,-0.9952,0.0476,0.0953,-0.3659,-0.1220,-0.0610
1595879409,-0.9949,0.0496,0.0937,-0.2439,0.0000,0.0000
1595879409,-0.9954,0.0480,0.0931,-0.1829,0.0000,-0.1220
1595879409,-0.9958,0.0480,0.0903,-0.3049,0.0610,-0.1220
1595879409,-0.9958,0.0497,0.0918,-0.2439,0.0000,-0.1829
1595879409,-0.9966,0.0501,0.0939,-0.3049,0.0000,-0.0610
1595879409,-0.9966,0.0483,0.0941,-0.3049,-0.0610,0.0000
1595879409,-0.9959,0.0491,0.0930,-0.3049,-0.0610,0.0000
1595879409,-0.9936,0.0502,0.0926,-0.1829,-0.0610,-0.0610
1595879409,-0.9978,0.0502,0.0947,-0.3049,-0.0610,-0.0610
1595879409,-0.9969,0.0493,0.0931,-0.3659,0.0000,-0.1829
1595879409,-0.9949,0.0491,0.0922,-0.3659,0.0000,-0.1220
1595879409,-0.9962,0.0499,0.0944,-0.2439,-0.0610,-0.0610
1595879409,-0.9958,0.0499,0.0922,-0.2439,-0.0610,0.0000
1595879409,-0.9958,0.0495,0.0938,-0.3049,-0.0610,-0.0610
1595879409,-0.9963,0.0472,0.0930,-0.3049,-0.1220,-0.0610
1595879409,-0.9938,0.0496,0.0938,-0.3659,-0.0610,-0.1220
1595879409,-0.9961,0.0503,0.0926,-0.3049,-0.0610,-0.1220
1595879409,-0.9961,0.0488,0.0919,-0.2439,-0.1220,-0.0610
1595879409,-0.9962,0.0485,0.0941,-0.2439,-0.0610,-0.0610
1595879409,-0.9959,0.0510,0.0945,-0.3049,-0.1220,-0.1220
1595879409,-0.9955,0.0516,0.0934,-0.3049,-0.0610,-0.1220
1595879409,-0.9959,0.0483,0.0942,-0.3049,0.0000,-0.0610
1595879409,-0.9964,0.0499,0.0933,-0.2439,-0.1220,-0.0610
1595879409,-0.9933,0.0510,0.0909,-0.2439,-0.1220,0.0000
1595879409,-0.9952,0.0495,0.0929,-0.3049,0.0000,-0.1220
1595879409,-0.9957,0.0480,0.0941,-0.3049,0.0000,-0.1829
1595879409,-0.9932,0.0465,0.0925,-0.2439,-0.0610,0.0000
1595879409,-0.9952,0.0504,0.0945,-0.1829,0.0000,0.0610
1595879409,-0.9963,0.0497,0.0925,-0.2439,0.0000,-0.1829
1595879409,-0.9971,0.0493,0.0923,-0.3659,-0.1220,-0.1220
1595879409,-0.9959,0.0500,0.0933,-0.3049,-0.0610,-0.1220
1595879409,-0.9957,0.0491,0.0907,-0.3049,-0.0610,-0.1220
1595879409,-0.9960,0.0495,0.0938,-0.3659,-0.1220,0.0000
1595879409,-0.9948,0.0488,0.0955,-0.3049,-0.0610,0.0000
1595879409,-0.9952,0.0517,0.0928,-0.2439,0.0000,0.0000
1595879409,-0.9977,0.0508,0.0921,-0.2439,-0.0610,-0.0610
1595879409,-0.9976,0.0507,0.0941,-0.3049,-0.0610,-0.1220
1595879409,-0.9952,0.0482,0.0938,-0.3659,-0.0610,-0.1220
1595879409,-0.9962,0.0496,0.0922,-0.3659,0.0000,-0.1220
1595879409,-0.9949,0.0499,0.0929,-0.3659,-0.0610,0.0000
1595879409,-0.9973,0.0494,0.0944,-0.3049,0.0000,-0.0610
1595879409,-0.9952,0.0504,0.0931,-0.2439,-0.0610,0.0000
1595879409,-0.9949,0.0488,0.0947,-0.3049,-0.1220,0.0000
1595879409,-0.9960,0.0476,0.0955,-0.2439,-0.1220,-0.0610
1595879409,-0.9969,0.0486,0.0944,-0.2439,-0.0610,-0.1220
1595879409,-0.9963,0.0496,0.0914,-0.3049,0.0000,-0.1829
1595879409,-0.9942,0.0482,0.0962,-0.3049,-0.0610,-0.1220
1595879409,-0.9943,0.0500,0.0935,-0.3049,-0.0610,-0.0610
1595879409,-0.9948,0.0510,0.0924,-0.2439,-0.0610,0.0000
1595879409,-0.9952,0.0517,0.0957,-0.3049,-0.0610,0.0000
1595879409,-0.9962,0.0518,0.0942,-0.3659,0.0000,-0.0610
1595879409,-0.9957,0.0496,0.0914,-0.2439,0.0000,-0.0610
1595879409,-0.9972,0.0495,0.0916,-0.2439,-0.0610,-0.0610
1595879409,-0.9947,0.0502,0.0942,-0.3659,-0.0610,-0.1220
1595879409,-0.9962,0.0499,0.0934,-0.3049,-0.0610,-0.0610
1595879409,-0.9954,0.0483,0.0917,-0.3049,-0.0610,-0.0610
1595879409,-0.9966,0.0480,0.0959,-0.3049,-0.0610,-0.0610
1595879409,-0.9972,0.0500,0.0931,-0.3049,-0.0610,-0.0610
1595879410,-0.9952,0.0510,0.0912,-0.3049,0.0000,-0.1220
1595879410,-0.9942,0.0518,0.0907,-0.3049,0.0000,-0.1829
1595879410,-0.9973,0.0510,0.0931,-0.3049,-0.0610,-0.0610
1595879410,-0.9974,0.0487,0.0915,-0.3049,-0.0610,-0.1220
1595879410,-0.9954,0.0508,0.0932,-0.3049,0.0000,-0.1829
1595879410,-0.9955,0.0494,0.0946,-0.3049,0.0000,-0.0610
1595879410,-0.9938,0.0503,0.0947,-0.3659,-0.1220,-0.1220
1595879410,-0.9957,0.0494,0.0938,-0.3049,-0.0610,-0.1220
1595879410,-0.9979,0.0505,0.0927,-0.2439,0.0000,-0.1220
1595879410,-0.9977,0.0493,0.0921,-0.3049,-0.1220,-0.0610
1595879410,-0.9951,0.0503,0.0939,-0.2439,-0.0610,-0.0610
1595879410,-0.9945,0.0505,0.0933,-0.2439,0.0000,0.0000
1595879410,-0.9939,0.0501,0.0934,-0.2439,-0.0610,0.0000
1595879410,-0.9941,0.0499,0.0934,-0.2439,-0.0610,-0.1220
1595879410,-0.9956,0.0502,0.0923,-0.2439,0.0000,-0.1829
1595879410,-0.9966,0.0496,0.0904,-0.3049,0.0000,-0.0610
1595879410,-0.9952,0.0493,0.0925,-0.3659,-0.0610,-0.1220
1595879410,-0.9946,0.0486,0.0934,-0.2439,-0.0610,-0.0610
1595879410,-0.9955,0.0496,0.0934,-0.1829,-0.0610,-0.0610
1595879410,-0.9950,0.0484,0.0948,-0.3049,-0.1220,0.0000
1595879410,-0.9965,0.0505,0.0923,-0.2439,-0.0610,-0.0610
1595879410,-0.9952,0.0493,0.0944,-0.3049,-0.0610,-0.1220
1595879410,-0.9964,0.0485,0.0936,-0.3049,0.0000,-0.1220
1595879410,-0.9927,0.0473,0.0933,-0.2439,-0.0610,-0.1829
1595879410,-0.9954,0.0513,0.0925,-0.3049,-0.1220,-0.1220
1595879410,-0.9955,0.0508,0.0927,-0.2439,-0.0610,0.0000
1595879410,-0.9947,0.0509,0.0934,-0.3659,-0.1220,0.0000
1595879410,-0.9966,0.0516,0.0951,-0.3049,0.0000,0.0000
1595879410,-0.9959,0.0493,0.0938,-0.3049,0.0610,0.0000
1595879410,-0.9961,0.0496,0.0936,-0.4268,0.0000,-0.1220
1595879410,-0.9942,0.0507,0.0946,-0.3049,-0.0610,-0.2439
1595879410,-0.9955,0.0483,0.0908,-0.3049,-0.0610,-0.1829
1595879410,-0.9959,0.0494,0.0920,-0.3049,0.0000,-0.0610
1595879410,-0.9968,0.0510,0.0930,-0.2439,0.0610,0.0000
1595879410,-0.9975,0.0486,0.0925,-0.3049,0.0000,0.0000
1595879410,-0.9958,0.0506,0.0923,-0.3049,-0.0610,0.0000
1595879410,-0.9954,0.0513,0.0945,-0.3049,0.0000,0.0000
1595879410,-0.9952,0.0502,0.0943,-0.3659,0.0000,-0.0610
1595879410,-0.9964,0.0490,0.0934,-0.2439,0.0000,-0.0610
1595879410,-0.9952,0.0492,0.0934,-0.2439,0.0000,-0.1220
1595879410,-0.9957,0.0474,0.0938,-0.3659,0.0610,-0.1220
1595879410,-0.9947,0.0493,0.0923,-0.3049,0.0610,-0.0610
1595879410,-0.9957,0.0486,0.0936,-0.3049,0.0000,0.0000
1595879410,-0.9958,0.0491,0.0936,-0.3659,-0.0610,0.0000
1595879410,-0.9949,0.0500,0.0927,-0.3659,-0.0610,0.0000
1595879410,-0.9945,0.0474,0.0917,-0.3659,0.0610,-0.1220
1595879410,-0.9958,0.0489,0.0950,-0.3049,0.0000,-0.0610
1595879410,-0.9960,0.0482,0.0921,-0.3049,-0.0610,-0.1829
1595879410,-0.9954,0.0483,0.0933,-0.3049,-0.0610,-0.0610
1595879410,-0.9962,0.0493,0.0932,-0.3659,-0.0610,-0.1220
1595879410,-0.9961,0.0493,0.0917,-0.3659,0.0000,-0.1829
1595879410,-0.9963,0.0504,0.0937,-0.3049,-0.0610,-0.1220
1595879410,-0.9958,0.0490,0.0930,-0.3049,-0.0610,-0.0610
1595879410,-0.9963,0.0502,0.0925,-0.3659,-0.0610,-0.0610
1595879410,-0.9965,0.0490,0.0944,-0.3049,-0.0610,0.0000
1595879410,-0.9960,0.0490,0.0945,-0.3049,-0.0610,-0.1220
1595879410,-0.9965,0.0494,0.0914,-0.3659,-0.0610,-0.1829
1595879410,-0.9960,0.0479,0.0915,-0.3659,0.0000,-0.1220
1595879410,-0.9951,0.0496,0.0913,-0.2439,0.0000,-0.1220
1595879410,-0.9943,0.0491,0.0919,-0.3049,-0.0610,-0.0610
1595879410,-0.9952,0.0489,0.0918,-0.3659,0.0000,-0.1220
1595879410,-0.9963,0.0499,0.0927,-0.3049,0.0000,-0.0610
1595879410,-0.9937,0.0494,0.0926,-0.2439,0.0000,0.0000
1595879410,-0.9973,0.0491,0.0934,-0.3659,0.0000,-0.0610
1595879410,-0.9959,0.0489,0.0927,-0.3049,0.0610,0.0000
1595879410,-0.9960,0.0497,0.0945,-0.3049,0.0000,-0.0610
1595879410,-0.9952,0.0485,0.0934,-0.4268,0.0000,-0.1220
1595879410,-0.9969,0.0485,0.0931,-0.3049,-0.0610,-0.1220
1595879410,-0.9957,0.0491,0.0930,-0.3049,-0.0610,-0.0610
1595879410,-0.9962,0.0490,0.0931,-0.3659,-0.0610,-0.0610
1595879410,-0.9964,0.0484,0.0943,-0.3049,-0.0610,-0.0610
1595879410,-0.9938,0.0494,0.0922,-0.3049,-0.1220,-0.1220
1595879410,-0.9970,0.0516,0.0918,-0.3049,-0.1220,-0.1829
1595879410,-0.9958,0.0493,0.0950,-0.2439,-0.0610,-0.1220
1595879410,-0.9955,0.0507,0.0930,-0.3049,0.0000,-0.1220
1595879410,-0.9934,0.0508,0.0947,-0.3049,-0.0610,-0.0610
1595879410,-0.9955,0.0477,0.0947,-0.3049,0.0000,-0.0610
1595879410,-0.9952,0.0494,0.0923,-0.3659,-0.0610,-0.1220
1595879410,-0.9945,0.0500,0.0920,-0.2439,0.0000,-0.1220
1595879410,-0.9970,0.0498,0.0933,-0.1829,-0.0610,-0.1220
1595879410,-0.9977,0.0505,0.0942,-0.3049,0.0000,-0.0610
1595879410,-0.9946,0.0510,0.0932,-0.3049,-0.1220,-0.1220
1595879410,-0.9954,0.0496,0.0916,-0.3049,-0.0610,-0.1829
1595879410,-0.9960,0.0486,0.0936,-0.3049,0.0000,-0.2439
1595879410,-0.9974,0.0498,0.0946,-0.4268,-0.0610,-0.0610
1595879410,-0.9943,0.0505,0.0931,-0.3049,-0.0610,0.0610
1595879410,-0.9955,0.0488,0.0926,-0.2439,0.0000,0.0000
1595879410,-0.9958,0.0511,0.0939,-0.1829,0.0000,-0.0610
1595879410,-0.9954,0.0482,0.0935,-0.3049,-0.0610,-0.1220
1595879410,-0.9946,0.0504,0.0932,-0.4268,-0.1220,-0.1220
1595879410,-0.9949,0.0510,0.0924,-0.3659,-0.0610,-0.0610
1595879410,-0.9958,0.0483,0.0955,-0.2439,-0.0610,-0.1829
1595879410,-0.9973,0.0483,0.0925,-0.3049,-0.0610,-0.1829
1595879410,-0.9964,0.0502,0.0914,-0.3049,-0.0610,-0.1220
1595879410,-0.9938,0.0511,0.0944,-0.3049,0.0000,-0.0610
1595879410,-0.9962,0.0524,0.0954,-0.3049,-0.0610,0.0000
1595879410,-0.9961,0.0511,0.0954,-0.3049,-0.0610,0.0610
1595879410,-0.9954,0.0502,0.0927,-0.3049,-0.1220,-0.0610
1595879410,-0.9949,0.0486,0.0914,-0.2439,0.0000,-0.1220
1595879410,-0.9968,0.0477,0.0928,-0.3049,0.0610,-0.1829
1595879410,-0.9950,0.0500,0.0936,-0.3659,0.0000,-0.1220
1595879410,-0.9959,0.0500,0.0913,-0.3049,-0.0610,-0.0610
1595879411,-0.9946,0.0490,0.0927,-0.3049,-0.1220,-0.0610
1595879411,-0.9982,0.0494,0.0950,-0.2439,-0.0610,-0.0610
1595879411,-0.9976,0.0502,0.0944,-0.3049,-0.0610,-0.1220
1595879411,-0.9972,0.0485,0.0945,-0.3049,0.0000,-0.1220
1595879411,-0.9947,0.0482,0.0925,-0.3049,0.0000,-0.1220
1595879411,-0.9948,0.0513,0.0910,-0.3049,0.0000,-0.1220
1595879411,-0.9954,0.0495,0.0930,-0.3659,-0.0610,-0.1220
1595879411,-0.9957,0.0474,0.0913,-0.3049,-0.0610,-0.1220
1595879411,-0.9951,0.0508,0.0917,-0.2439,-0.0610,0.0000
1595879411,-0.9951,0.0502,0.0926,-0.3049,-0.0610,0.0610
1595879411,-0.9950,0.0513,0.0943,-0.2439,-0.1220,0.0610
1595879411,-0.9966,0.0507,0.0930,-0.1829,-0.0610,-0.1220
1595879411,-0.9958,0.0491,0.0905,-0.3049,0.0000,-0.1829
1595879411,-0.9965,0.0499,0.0949,-0.3659,0.0000,-0.1829
1595879411,-0.9961,0.0508,0.0942,-0.3049,-0.1220,-0.1220
1595879411,-0.9952,0.0504,0.0916,-0.3659,-0.0610,-0.1829
1595879411,-0.9965,0.0500,0.0943,-0.3049,-0.0610,-0.1220
1595879411,-0.9968,0.0500,0.0933,-0.2439,-0.0610,0.0000
1595879411,-0.9948,0.0488,0.0941,-0.3049,0.0000,0.0000
1595879411,-0.9959,0.0504,0.0915,-0.3659,0.0000,0.0000
1595879411,-0.9959,0.0511,0.0945,-0.3049,0.0000,-0.0610
1595879411,-0.9964,0.0497,0.0945,-0.3049,0.0610,-0.1220
1595879411,-0.9948,0.0491,0.0911,-0.3659,0.0000,-0.1829
1595879411,-0.9976,0.0490,0.0923,-0.3659,-0.0610,-0.1220
1595879411,-0.9962,0.0499,0.0939,-0.3049,-0.0610,-0.0610
1595879411,-0.9952,0.0506,0.0947,-0.3049,-0.0610,-0.0610
1595879411,-0.9955,0.0485,0.0931,-0.2439,0.0000,0.0610
1595879411,-0.9962,0.0501,0.0931,-0.3049,-0.0610,0.0000
1595879411,-0.9946,0.0486,0.0929,-0.3049,-0.0610,0.0000
1595879411,-0.9954,0.0483,0.0937,-0.2439,-0.0610,-0.0610
1595879411,-0.9959,0.0495,0.0937,-0.2439,-0.0610,-0.1829
1595879411,-0.9965,0.0502,0.0928,-0.2439,0.0000,-0.3049
1595879411,-0.9949,0.0483,0.0919,-0.2439,0.0610,-0.1829
1595879411,-0.9949,0.0486,0.0940,-0.3049,-0.0610,0.0000
1595879411,-0.9958,0.0496,0.0930,-0.3659,-0.1220,0.0000
1595879411,-0.9964,0.0509,0.0926,-0.1829,0.0000,0.1220
1595879411,-0.9961,0.0500,0.0947,-0.2439,-0.0610,0.1220
1595879411,-0.9939,0.0513,0.0938,-0.2439,0.0000,-0.0610
1595879411,-0.9965,0.0485,0.0911,-0.3659,0.0610,-0.1829
1595879411,-0.9953,0.0495,0.0917,-0.3659,0.0610,-0.1220
1595879411,-0.9928,0.0494,0.0917,-0.2439,0.0000,-0.1220
1595879411,-0.9955,0.0484,0.0927,-0.3049,0.0000,-0.1220
1595879411,-0.9949,0.0492,0.0937,-0.3049,-0.1220,0.0610
1595879411,-0.9952,0.0505,0.0916,-0.3049,0.0000,0.0000
1595879411,-0.9949,0.0482,0.0923,-0.2439,-0.0610,-0.0610
1595879411,-0.9955,0.0482,0.0913,-0.3049,-0.0610,-0.0610
1595879411,-0.9952,0.0478,0.0922,-0.3049,0.0000,-0.1220
1595879411,-0.9968,0.0489,0.0918,-0.3049,0.0000,-0.1829
1595879411,-0.9957,0.0504,0.0915,-0.4878,0.0000,-0.1220
1595879411,-0.9956,0.0496,0.0937,-0.3049,0.0610,0.0000
1595879411,-0.9957,0.0499,0.0947,-0.2439,0.0000,0.0000
1595879411,-0.9952,0.0494,0.0931,-0.2439,0.0000,-0.0610
1595879411,-0.9952,0.0506,0.0905,-0.2439,-0.0610,-0.0610
1595879411,-0.9930,0.0517,0.0894,-0.3049,0.0000,-0.0610
1595879411,-0.9950,0.0493,0.0923,-0.3049,-0.0610,-0.0610
1595879411,-0.9942,0.0501,0.0911,-0.2439,0.0000,-0.1220
1595879411,-0.9966,0.0502,0.0920,-0.3049,0.0000,-0.1220
1595879411,-0.9962,0.0499,0.0921,-0.3049,-0.1220,-0.1220
1595879411,-0.9954,0.0493,0.0937,-0.3049,0.0000,-0.0610
1595879411,-0.9959,0.0496,0.0927,-0.3049,0.0000,-0.0610
1595879411,-0.9970,0.0494,0.0934,-0.1829,-0.0610,0.0000
1595879411,-0.9951,0.0485,0.0923,-0.3049,-0.0610,-0.0610
1595879411,-0.9975,0.0480,0.0926,-0.3659,-0.0610,-0.1220
1595879411,-0.9964,0.0500,0.0915,-0.3049,0.0000,-0.1220
1595879411,-0.9979,0.0502,0.0916,-0.3049,0.0000,-0.1220
1595879411,-0.9949,0.0512,0.0916,-0.3049,0.0000,-0.1220
1595879411,-0.9983,0.0500,0.0937,-0.3659,-0.0610,-0.0610
1595879411,-0.9931,0.0485,0.0927,-0.3049,0.0000,-0.0610
1595879411,-0.9999,0.0488,0.0916,-0.2439,-0.0610,-0.0610
1595879411,-0.9955,0.0503,0.0948,-0.3659,-0.0610,-0.1220
1595879411,-0.9928,0.0511,0.0914,-0.2439,-0.0610,0.0000
1595879411,-0.9980,0.0507,0.0932,-0.2439,0.0000,0.0000
1595879411,-0.9943,0.0513,0.0934,-0.3049,0.0000,0.1220
1595879411,-0.9975,0.0479,0.0952,-0.3049,-0.0610,0.0000
1595879411,-0.9930,0.0483,0.0953,-0.3659,0.0610,-0.4268
1595879411,-0.9945,0.0460,0.0932,-0.4268,0.0610,-0.4878
1595879411,-0.9942,0.0462,0.0927,-0.3659,0.0000,-0.3049
1595879411,-0.9956,0.0520,0.0942,-0.2439,-0.0610,0.3659
1595879411,-0.9950,0.0536,0.0941,-0.1829,-0.1220,0.7927
1595879411,-0.9955,0.0514,0.0929,-0.2439,-0.1220,0.4268
1595879411,-0.9948,0.0492,0.0922,-0.3049,0.0000,-0.4268
1595879411,-0.9960,0.0456,0.0919,-0.4268,0.0000,-0.9146
1595879411,-0.9974,0.0461,0.0900,-0.3659,0.0000,-0.6098
1595879411,-0.9948,0.0485,0.0929,-0.2439,0.0000,-0.0610
1595879411,-0.9950,0.0506,0.0953,-0.2439,0.0000,0.3659
1595879411,-0.9960,0.0520,0.0936,-0.2439,-0.0610,0.4878
1595879411,-0.9946,0.0535,0.0952,-0.2439,-0.1220,0.2439
1595879411,-0.9944,0.0513,0.0963,-0.2439,0.0000,-0.0610
1595879411,-0.9951,0.0488,0.0910,-0.3049,0.0000,-0.3049
1595879411,-0.9982,0.0481,0.0916,-0.2439,0.0000,-0.5488
1595879411,-0.9955,0.0462,0.0924,-0.4268,0.0610,-0.6707
1595879411,-1.0013,0.0466,0.0942,-0.4268,0.0000,-0.4268
1595879411,-0.9901,0.0493,0.0930,-0.3049,0.0000,0.1220
1595879411,-0.9950,0.0512,0.1015,-0.2439,-0.0610,0.6098
1595879411,-0.9957,0.0560,0.0962,-0.1220,-0.1220,0.9146
1595879411,-0.9982,0.0532,0.0973,-0.1829,-0.0610,0.5488
1595879411,-0.9979,0.0556,0.0867,-0.3049,0.0000,-0.2439
1595879411,-0.9946,0.0473,0.0938,-0.3659,0.1220,-1.0976
1595879411,-0.9923,0.0390,0.0915,-0.4878,0.1829,-1.9512
1595879411,-0.9949,0.0363,0.0884,-0.4878,0.1829,-2.0122
1595879411,-0.9957,0.0430,0.0887,-0.3049,0.0000,-0.4878
1595879412,-0.9944,0.0549,0.0971,-0.0610,-0.1829,1.6463
1595879412,-0.9977,0.0641,0.0967,-0.0610,-0.3659,2.8049
1595879412,-0.9946,0.0635,0.0994,-0.0610,-0.1829,2.0122
1595879412,-0.9970,0.0537,0.0997,-0.2439,0.0610,-0.3659
1595879412,-0.9940,0.0434,0.0955,-0.4878,0.1829,-2.4390
1595879412,-0.9977,0.0409,0.0875,-0.5488,0.1220,-2.6220
1595879412,-0.9941,0.0402,0.0916,-0.4268,0.1220,-1.2805
1595879412,-0.9950,0.0472,0.0912,-0.3049,0.0000,0.1829
1595879412,-0.9932,0.0517,0.0915,-0.1829,-0.1220,1.2805
1595879412,-0.9963,0.0570,0.0912,-0.1220,-0.1220,1.6463
1595879412,-0.9956,0.0552,0.0923,-0.1220,-0.1220,1.0366
1595879412,-0.9952,0.0517,0.0974,-0.2439,-0.1220,-0.1220
1595879412,-0.9937,0.0513,0.0925,-0.3659,-0.0610,-0.8537
1595879412,-0.9987,0.0506,0.0976,-0.3659,-0.0610,-0.5488
1595879412,-0.9949,0.0472,0.0947,-0.2439,0.0000,-0.3659
1595879412,-0.9980,0.0458,0.0963,-0.3659,0.0000,-0.8537
1595879412,-0.9951,0.0425,0.0899,-0.3659,0.0000,-0.9756
1595879412,-0.9966,0.0438,0.0986,-0.3049,-0.0610,-0.1220
1595879412,-0.9899,0.0577,0.0844,-0.2439,-0.1220,0.9756
1595879412,-0.9944,0.0512,0.0889,-0.0610,-0.1829,1.2805
1595879412,-0.9942,0.0394,0.0983,-0.4878,0.0610,-1.2805
1595879412,-1.0002,0.0531,0.0954,-0.4878,0.0000,-0.6707
1595879412,-0.9915,0.0669,0.1060,0.0610,-0.2439,2.7439
1595879412,-0.9973,0.0732,0.0904,0.2439,-0.3659,3.8415
1595879412,-0.9950,0.0541,0.0947,-0.1829,-0.0610,0.1220
1595879412,-0.9932,0.0276,0.0875,-0.7927,0.4268,-5.1829
1595879412,-0.9937,0.0082,0.0901,-1.1585,0.6098,-7.5610
1595879412,-0.9949,0.0162,0.0920,-0.8537,0.3049,-4.8780
1595879412,-0.9994,0.0449,0.0993,-0.1829,-0.3049,1.8293
1595879412,-0.9959,0.0845,0.0989,0.6098,-0.8537,8.5976
1595879412,-0.9944,0.0988,0.0997,0.8537,-0.9146,10.1829
1595879412,-0.9937,0.0881,0.0930,0.3659,-0.4878,5.0000
1595879412,-0.9956,0.0510,0.0873,-0.5488,0.3049,-3.7805
1595879412,-0.9956,0.0071,0.0844,-1.5244,0.9756,-11.2195
1595879412,-0.9937,-0.0034,0.0844,-1.6463,0.9146,-11.5854
1595879412,-0.9947,0.0123,0.0917,-0.7927,0.3049,-4.5732
1595879412,-0.9983,0.0496,0.0983,0.1829,-0.4878,4.7561
1595879412,-0.9974,0.0885,0.1055,0.9756,-1.0976,11.4024
1595879412,-0.9959,0.1003,0.1015,1.0366,-0.9756,11.0366
1595879412,-0.9952,0.0850,0.0924,0.2439,-0.3659,3.7805
1595879412,-0.9966,0.0444,0.0886,-0.9146,0.4268,-5.4878
1595879412,-0.9985,0.0094,0.0846,-1.4634,1.0366,-11.2805
1595879412,-0.9941,0.0062,0.0816,-1.4024,0.8537,-9.6341
1595879412,-0.9933,0.0232,0.0883,-0.6707,0.1829,-2.3780
1595879412,-0.9939,0.0551,0.0991,0.1220,-0.4878,5.1220
1595879412,-0.9964,0.0822,0.1035,0.7317,-0.8537,9.0244
1595879412,-0.9962,0.0854,0.1000,0.5488,-0.7317,7.4390
1595879412,-0.9972,0.0679,0.1007,-0.0610,-0.1829,1.5854
1595879412,-0.9948,0.0421,0.0963,-0.7317,0.3049,-4.2683
1595879412,-0.9957,0.0240,0.0863,-1.0976,0.6098,-6.9512
1595879412,-0.9922,0.0248,0.0863,-0.7927,0.4878,-5.3659
1595879412,-0.9930,0.0356,0.0878,-0.3049,0.0610,-1.1585
1595879412,-0.9965,0.0502,0.0886,0.0610,-0.3049,2.6829
1595879412,-0.9968,0.0610,0.0954,0.1220,-0.4268,4.2683
1595879412,-0.9984,0.0629,0.0987,0.0000,-0.3659,3.1098
1595879412,-0.9962,0.0598,0.1008,-0.1829,-0.1220,0.8537
1595879412,-0.9976,0.0530,0.0984,-0.3659,0.0000,-0.7927
1595879412,-0.9965,0.0472,0.0939,-0.4878,0.0610,-1.7683
1595879412,-0.9943,0.0413,0.0919,-0.4878,0.1829,-2.0122
1595879412,-0.9941,0.0382,0.0889,-0.4268,0.1829,-1.8902
1595879412,-0.9971,0.0374,0.0858,-0.3659,0.1220,-1.2195
1595879412,-0.9979,0.0396,0.0901,-0.3049,0.0000,-0.3659
1595879412,-0.9955,0.0482,0.0936,-0.2439,-0.0610,0.9146
1595879412,-0.9981,0.0591,0.0977,-0.0610,-0.3049,2.4390
1595879412,-0.9973,0.0680,0.1002,0.0610,-0.3659,3.0488
1595879412,-0.9937,0.0668,0.0968,-0.1220,-0.1829,1.8293
1595879412,-0.9952,0.0533,0.0927,-0.3049,0.0000,-0.6707
1595879412,-0.9975,0.0389,0.0905,-0.6098,0.2439,-3.1098
1595879412,-0.9961,0.0281,0.0900,-0.7927,0.4268,-4.2683
1595879412,-0.9958,0.0281,0.0920,-0.6098,0.1829,-2.9878
1595879412,-0.9952,0.0397,0.0922,-0.3049,-0.1829,0.1829
1595879412,-0.9958,0.0583,0.0926,0.0610,-0.3659,3.4146
1595879412,-0.9927,0.0693,0.0981,0.1829,-0.4878,4.6951
1595879412,-0.9939,0.0707,0.0955,0.1220,-0.4268,3.2927
1595879412,-0.9952,0.0587,0.0932,-0.1829,0.0000,0.0610
1595879412,-0.9966,0.0416,0.0900,-0.6098,0.1829,-3.4146
1595879412,-0.9949,0.0285,0.0912,-0.9146,0.3049,-5.1220
1595879412,-0.9957,0.0275,0.0912,-0.7927,0.3049,-3.7195
1595879412,-0.9963,0.0381,0.0906,-0.3049,0.0610,-0.2439
1595879412,-0.9940,0.0551,0.0968,0.0000,-0.3049,3.0488
1595879412,-0.9936,0.0683,0.0991,0.2439,-0.4878,4.5732
1595879412,-0.9948,0.0708,0.0956,0.1220,-0.3049,3.4146
1595879412,-0.9965,0.0579,0.0930,-0.1829,-0.1220,0.3659
1595879412,-0.9958,0.0434,0.0912,-0.5488,0.1829,-2.8659
1595879412,-0.9986,0.0329,0.0874,-0.7927,0.2439,-4.3293
1595879412,-0.9972,0.0311,0.0856,-0.6707,0.2439,-3.3537
1595879412,-0.9974,0.0392,0.0920,-0.3049,0.0000,-0.7317
1595879412,-0.9949,0.0510,0.0984,-0.1220,-0.2439,2.0122
1595879412,-0.9959,0.0607,0.0983,0.1220,-0.3659,3.2317
1595879412,-0.9965,0.0637,0.0965,0.0610,-0.2439,2.6220
1595879412,-0.9966,0.0576,0.0955,-0.3049,-0.1220,0.6707
1595879412,-0.9941,0.0482,0.0896,-0.4878,0.0610,-1.3415
1595879412,-0.9952,0.0428,0.0898,-0.4878,0.1829,-2.5610
1595879412,-0.9957,0.0391,0.0886,-0.5488,0.1829,-2.3780
1595879412,-0.9955,0.0406,0.0883,-0.4878,0.0000,-1.0976
1595879412,-0.9949,0.0484,0.0900,-0.2439,0.0000,0.6098
1595879412,-0.9946,0.0524,0.0955,-0.1220,-0.2439,1.7683
1595879412,-0.9979,0.0586,0.0991,-0.0610,-0.1829,1.8902
1595879412,-0.9971,0.0576,0.0960,-0.1829,-0.0610,1.0366
1595879412,-0.9969,0.0529,0.0952,-0.3659,-0.0610,-0.1829
1595879412,-0.9950,0.0477,0.0930,-0.4268,0.0000,-1.2805
1595879413,-0.9937,0.0434,0.0923,-0.4878,0.1220,-1.8293
1595879413,-0.9966,0.0422,0.0885,-0.4878,0.0610,-1.3415
1595879413,-0.9955,0.0443,0.0915,-0.2439,0.0000,-0.3049
1595879413,-0.9946,0.0493,0.0917,-0.1829,-0.0610,0.6098
1595879413,-0.9960,0.0547,0.0948,-0.2439,-0.1220,1.1585
1595879413,-0.9949,0.0563,0.0953,-0.2439,-0.1829,1.2195
1595879413,-0.9948,0.0568,0.0981,-0.2439,-0.1220,0.6098
1595879413,-0.9961,0.0515,0.0956,-0.3659,0.0000,-0.2439
1595879413,-0.9954,0.0449,0.0912,-0.3659,0.1220,-0.9146
1595879413,-0.9948,0.0447,0.0903,-0.4878,0.1829,-1.2805
1595879413,-0.9944,0.0436,0.0923,-0.4878,0.0610,-1.2805
1595879413,-0.9949,0.0444,0.0916,-0.3659,0.0000,-0.6098
1595879413,-0.9968,0.0486,0.0915,-0.2439,-0.0610,0.3659
1595879413,-0.9957,0.0536,0.0942,-0.1829,-0.1220,1.3415
1595879413,-0.9959,0.0577,0.0932,-0.1829,-0.1220,1.5244
1595879413,-0.9951,0.0565,0.0936,-0.2439,-0.0610,0.8537
1595879413,-0.9955,0.0526,0.0921,-0.3049,-0.0610,-0.4268
1595879413,-0.9946,0.0436,0.0918,-0.4268,0.0610,-1.7073
1595879413,-0.9953,0.0401,0.0895,-0.4878,0.1220,-2.0122
1595879413,-0.9974,0.0405,0.0895,-0.4878,0.0610,-1.3415
1595879413,-0.9966,0.0454,0.0937,-0.3049,-0.0610,0.1220
1595879413,-0.9948,0.0529,0.0957,-0.1220,-0.1829,1.4024
1595879413,-0.9963,0.0599,0.0948,-0.0610,-0.1829,1.9512
1595879413,-0.9958,0.0598,0.0958,-0.0610,-0.1220,1.5244
1595879413,-0.9945,0.0559,0.0914,-0.1829,-0.0610,0.1220
1595879413,-0.9973,0.0490,0.0891,-0.3049,0.0610,-1.4024
1595879413,-0.9964,0.0409,0.0909,-0.4878,0.1829,-2.1341
1595879413,-0.9958,0.0389,0.0938,-0.6098,0.1220,-1.8902
1595879413,-0.9955,0.0432,0.0911,-0.4878,-0.0610,-0.6707
1595879413,-0.9973,0.0504,0.0928,-0.1829,-0.1829,0.9146
1595879413,-0.9957,0.0560,0.0968,-0.0610,-0.1829,1.8293
1595879413,-0.9956,0.0560,0.0963,-0.1829,-0.1829,1.6463
1595879413,-0.9960,0.0561,0.0938,-0.1829,-0.1220,0.6707
1595879413,-0.9961,0.0519,0.0912,-0.3659,0.0610,-0.5488
1595879413,-0.9962,0.0454,0.0881,-0.4268,0.1220,-1.5244
1595879413,-0.9941,0.0421,0.0923,-0.4878,0.1220,-1.7683
1595879413,-0.9954,0.0431,0.0905,-0.3659,0.0000,-1.0366
1595879413,-0.9946,0.0467,0.0916,-0.2439,-0.0610,0.0000
1595879413,-0.9962,0.0534,0.0941,-0.2439,-0.1220,1.0976
1595879413,-0.9961,0.0555,0.0936,-0.1829,-0.1829,1.4024
1595879413,-0.9968,0.0561,0.0948,-0.1220,-0.1220,0.8537
1595879413,-0.9982,0.0528,0.0989,-0.2439,0.0000,-0.1220
1595879413,-0.9980,0.0476,0.0918,-0.4878,0.0610,-1.0366
1595879413,-0.9951,0.0457,0.0890,-0.4878,0.1220,-1.2805
1595879413,-0.9960,0.0439,0.0919,-0.3659,0.0610,-0.8537
1595879413,-0.9946,0.0467,0.0940,-0.3049,0.0610,-0.1220
1595879413,-0.9946,0.0512,0.0950,-0.1829,-0.1220,0.5488
1595879413,-0.9963,0.0530,0.0954,-0.1220,-0.0610,0.7927
1595879413,-0.9958,0.0529,0.0959,-0.2439,-0.1829,0.5488
1595879413,-0.9979,0.0534,0.0940,-0.3049,-0.0610,0.1220
1595879413,-0.9965,0.0482,0.0910,-0.2439,-0.0610,-0.3049
1595879413,-0.9957,0.0466,0.0913,-0.3049,-0.0610,-0.7317
1595879413,-0.9954,0.0461,0.0919,-0.3659,0.0610,-0.7927
1595879413,-0.9960,0.0464,0.0912,-0.3049,0.0000,-0.4268
1595879413,-0.9964,0.0472,0.0922,-0.2439,-0.0610,-0.0610
1595879413,-0.9951,0.0503,0.0918,-0.3049,-0.1220,0.4268
1595879413,-0.9973,0.0524,0.0936,-0.3049,-0.1220,0.7317
1595879413,-0.9968,0.0545,0.0950,-0.1220,-0.1220,0.5488
1595879413,-0.9950,0.0527,0.0930,-0.2439,0.0610,-0.0610
1595879413,-0.9958,0.0494,0.0921,-0.3659,0.1220,-0.6098
1595879413,-0.9950,0.0463,0.0911,-0.4268,0.0610,-0.9756
1595879413,-0.9957,0.0444,0.0917,-0.3659,0.0610,-0.9756
1595879413,-0.9948,0.0456,0.0936,-0.3049,0.0000,-0.4268
1595879413,-0.9943,0.0484,0.0959,-0.2439,-0.0610,0.3659
1595879413,-0.9949,0.0526,0.0970,-0.1829,-0.1220,0.9756
1595879413,-0.9967,0.0544,0.0944,-0.1220,-0.1829,0.9756
1595879413,-0.9965,0.0524,0.0955,-0.1829,-0.1220,0.4878
1595879413,-0.9954,0.0516,0.0936,-0.2439,-0.1220,-0.3659
1595879413,-0.9958,0.0481,0.0902,-0.3659,0.0000,-0.9756
1595879413,-0.9945,0.0445,0.0920,-0.4268,0.1220,-1.1585
1595879413,-0.9954,0.0455,0.0908,-0.4268,0.0610,-0.7927
1595879413,-0.9964,0.0449,0.0938,-0.3049,-0.0610,-0.1220
1595879413,-0.9970,0.0485,0.0945,-0.2439,-0.1220,0.6098
1595879413,-0.9958,0.0540,0.0966,-0.2439,-0.1829,0.9146
1595879413,-0.9971,0.0551,0.0951,-0.2439,-0.0610,0.7317
1595879413,-0.9939,0.0555,0.0936,-0.2439,-0.0610,0.2439
1595879413,-0.9940,0.0488,0.0959,-0.3049,-0.0610,-0.4268
1595879413,-0.9976,0.0466,0.0919,-0.4268,0.0000,-0.9146
1595879413,-0.9962,0.0448,0.0910,-0.4878,0.0610,-0.9756
1595879413,-0.9947,0.0454,0.0939,-0.3049,0.0000,-0.5488
1595879413,-0.9953,0.0478,0.0922,-0.1829,-0.1220,0.1220
1595879413,-0.9954,0.0515,0.0922,-0.3049,-0.1220,0.6707
1595879413,-0.9963,0.0540,0.0926,-0.1829,-0.0610,0.7927
1595879413,-0.9963,0.0519,0.0947,-0.2439,0.0000,0.3049
1595879413,-0.9959,0.0494,0.0920,-0.3659,-0.0610,-0.3049
1595879413,-0.9948,0.0486,0.0908,-0.3659,0.0000,-0.6098
1595879413,-0.9958,0.0457,0.0925,-0.3049,0.0000,-0.6707
1595879413,-0.9937,0.0464,0.0935,-0.3659,0.0000,-0.3659
1595879413,-0.9954,0.0486,0.0910,-0.3049,-0.1220,0.0000
1595879413,-0.9976,0.0502,0.0920,-0.2439,-0.0610,0.4268
1595879413,-0.9955,0.0511,0.0939,-0.1829,-0.1220,0.4268
1595879413,-0.9942,0.0538,0.0917,-0.1220,-0.0610,0.2439
1595879413,-0.9951,0.0512,0.0916,-0.1829,0.0000,0.1220
1595879413,-0.9949,0.0508,0.0896,-0.3659,0.0000,-0.2439
1595879413,-0.9935,0.0473,0.0934,-0.3659,0.0000,-0.5488
1595879413,-0.9964,0.0468,0.0920,-0.2439,0.0610,-0.6098
1595879413,-0.9961,0.0475,0.0917,-0.2439,-0.1220,-0.2439
1595879413,-0.9963,0.0491,0.0928,-0.2439,-0.1829,0.0610
1595879413,-0.9953,0.0504,0.0945,-0.1829,-0.0610,0.4268
1595879413,-0.9951,0.0532,0.0911,-0.1829,-0.0610,0.5488
1595879413,-0.9960,0.0515,0.0931,-0.3049,-0.0610,0.3049
1595879413,-0.9946,0.0490,0.0947,-0.3659,0.0610,-0.3659
1595879414,-0.9955,0.0472,0.0912,-0.3659,0.0000,-0.7317
1595879414,-0.9962,0.0458,0.0903,-0.3659,0.0000,-0.7317
1595879414,-0.9956,0.0464,0.0919,-0.4268,0.0000,-0.4878
1595879414,-0.9963,0.0479,0.0926,-0.2439,0.0000,0.0000
1595879414,-0.9970,0.0521,0.0919,-0.3049,-0.1220,0.5488
1595879414,-0.9966,0.0551,0.0947,-0.2439,-0.1220,0.7317
1595879414,-0.9969,0.0547,0.0957,-0.2439,-0.1220,0.4268
1595879414,-0.9973,0.0543,0.0938,-0.2439,-0.0610,-0.0610
1595879414,-0.9956,0.0502,0.0931,-0.3049,0.0610,-0.6098
1595879414,-0.9952,0.0457,0.0906,-0.4268,0.1220,-0.8537
1595879414,-0.9950,0.0431,0.0901,-0.3659,0.1220,-0.6707
1595879414,-0.9946,0.0448,0.0936,-0.2439,-0.0610,-0.3049
1595879414,-0.9974,0.0484,0.0931,-0.3049,-0.0610,0.1220
1595879414,-0.9951,0.0504,0.0936,-0.3049,-0.1220,0.5488
1595879414,-0.9956,0.0532,0.0937,-0.2439,-0.0610,0.6098
1595879414,-0.9958,0.0549,0.0929,-0.1829,-0.0610,0.3659
1595879414,-0.9946,0.0517,0.0955,-0.3659,0.0000,-0.0610
1595879414,-0.9966,0.0468,0.0932,-0.3049,0.0000,-0.6098
1595879414,-0.9950,0.0457,0.0933,-0.3659,0.0000,-0.7317
1595879414,-0.9955,0.0464,0.0901,-0.3049,-0.1220,-0.5488
1595879414,-0.9969,0.0477,0.0945,-0.2439,-0.0610,-0.2439
1595879414,-0.9970,0.0513,0.0944,-0.3049,-0.1220,0.2439
1595879414,-0.9938,0.0512,0.0911,-0.3659,-0.1220,0.4878
1595879414,-0.9951,0.0504,0.0934,-0.1829,-0.1220,0.4268
1595879414,-0.9958,0.0508,0.0938,-0.2439,-0.0610,0.0000
1595879414,-0.9943,0.0499,0.0927,-0.3049,0.0000,-0.3049
1595879414,-0.9951,0.0486,0.0916,-0.4268,0.0000,-0.4268
1595879414,-0.9961,0.0481,0.0929,-0.3049,0.0000,-0.3049
1595879414,-0.9979,0.0472,0.0934,-0.1829,0.0000,-0.1220
1595879414,-0.9963,0.0474,0.0918,-0.3049,0.0000,0.0610
1595879414,-0.9969,0.0487,0.0933,-0.1829,0.0000,0.2439
1595879414,-0.9965,0.0502,0.0934,-0.2439,-0.0610,0.2439
1595879414,-0.9979,0.0486,0.0923,-0.2439,0.0000,0.1220
1595879414,-0.9960,0.0491,0.0928,-0.2439,-0.0610,-0.0610
1595879414,-0.9952,0.0490,0.0933,-0.3049,0.0000,-0.3049
1595879414,-0.9949,0.0482,0.0948,-0.3659,0.0000,-0.4268
1595879414,-0.9956,0.0474,0.0936,-0.3659,0.0000,-0.3659
1595879414,-0.9952,0.0474,0.0928,-0.3049,-0.0610,-0.1829
1595879414,-0.9945,0.0505,0.0948,-0.3049,-0.0610,0.1829
1595879414,-0.9951,0.0508,0.0933,-0.2439,-0.1220,0.3049
1595879414,-0.9965,0.0519,0.0934,-0.2439,-0.0610,0.3049
1595879414,-0.9973,0.0506,0.0935,-0.3049,-0.0610,0.0610
1595879414,-0.9956,0.0486,0.0928,-0.4268,0.0000,-0.3659
1595879414,-0.9950,0.0465,0.0927,-0.3049,0.0000,-0.5488
1595879414,-0.9954,0.0458,0.0906,-0.3049,-0.0610,-0.4268
1595879414,-0.9959,0.0471,0.0912,-0.3049,0.0000,-0.1220
1595879414,-0.9946,0.0481,0.0939,-0.1220,0.0000,0.1829
1595879414,-0.9939,0.0512,0.0943,-0.1220,0.0000,0.3049
1595879414,-0.9951,0.0502,0.0945,-0.3049,0.0000,0.2439
1595879414,-0.9971,0.0490,0.0925,-0.2439,-0.0610,0.0610
1595879414,-0.9957,0.0491,0.0928,-0.2439,0.0000,-0.1220
1595879414,-0.9950,0.0483,0.0934,-0.3049,0.0000,-0.4268
1595879414,-0.9946,0.0477,0.0933,-0.3049,-0.0610,-0.4878
1595879414,-0.9954,0.0470,0.0955,-0.3049,0.0000,-0.3049
1595879414,-0.9955,0.0483,0.0911,-0.2439,0.0000,-0.0610
1595879414,-0.9946,0.0507,0.0918,-0.2439,-0.0610,0.1829
1595879414,-0.9949,0.0504,0.0942,-0.1829,-0.0610,0.3049
1595879414,-0.9954,0.0501,0.0940,-0.3049,-0.0610,0.2439
1595879414,-0.9952,0.0504,0.0942,-0.3049,0.0000,-0.0610
1595879414,-0.9958,0.0483,0.0923,-0.3049,-0.0610,-0.2439
1595879414,-0.9954,0.0472,0.0946,-0.3049,0.0000,-0.2439
1595879414,-0.9955,0.0467,0.0930,-0.3659,-0.0610,-0.3659
1595879414,-0.9957,0.0475,0.0937,-0.2439,-0.0610,-0.2439
1595879414,-0.9945,0.0495,0.0936,-0.1829,-0.0610,0.0000
1595879414,-0.9979,0.0490,0.0941,-0.3049,-0.0610,0.0610
1595879414,-0.9977,0.0513,0.0923,-0.3049,-0.0610,0.0610
1595879414,-0.9947,0.0503,0.0939,-0.3049,0.0000,0.0000
1595879414,-0.9954,0.0488,0.0898,-0.3049,0.0000,-0.1220
1595879414,-0.9963,0.0483,0.0912,-0.3049,0.0000,-0.2439
1595879414,-0.9953,0.0490,0.0939,-0.3049,0.0000,-0.1220
1595879414,-0.9946,0.0483,0.0925,-0.2439,-0.0610,-0.1829
1595879414,-0.9949,0.0477,0.0933,-0.2439,0.0610,0.0000
1595879414,-0.9955,0.0490,0.0934,-0.2439,-0.0610,0.0610
1595879414,-0.9943,0.0511,0.0917,-0.3049,0.0000,0.0000
1595879414,-0.9935,0.0500,0.0934,-0.3049,-0.0610,0.0000
1595879414,-0.9963,0.0497,0.0895,-0.3659,-0.0610,0.0000
1595879414,-0.9979,0.0515,0.0897,-0.3049,0.0000,0.0000
1595879414,-0.9970,0.0488,0.0933,-0.3049,0.0000,-0.1829
1595879414,-0.9938,0.0480,0.0920,-0.3049,-0.0610,-0.3049
1595879414,-0.9935,0.0480,0.0897,-0.3049,-0.0610,-0.4268
1595879414,-0.9977,0.0496,0.0929,-0.3049,0.0000,-0.1220
1595879414,-0.9970,0.0509,0.0950,-0.2439,-0.0610,0.1829
1595879414,-0.9955,0.0513,0.0950,-0.1829,-0.0610,0.3049
1595879414,-0.9944,0.0501,0.0939,-0.2439,0.0000,0.1829
1595879414,-0.9946,0.0500,0.0923,-0.3659,0.0000,-0.1220
1595879414,-0.9952,0.0485,0.0927,-0.3659,0.0000,-0.4268
1595879414,-0.9955,0.0483,0.0933,-0.3659,0.0000,-0.4268
1595879414,-0.9968,0.0479,0.0933,-0.3659,0.0000,-0.1829
1595879414,-0.9954,0.0471,0.0902,-0.3049,-0.0610,-0.0610
1595879414,-0.9941,0.0505,0.0923,-0.3049,-0.0610,0.1220
1595879414,-0.9973,0.0494,0.0903,-0.2439,-0.0610,0.1829
1595879414,-0.9963,0.0495,0.0923,-0.3049,-0.1829,0.1220
1595879414,-0.9949,0.0505,0.0942,-0.3659,-0.0610,0.0000
1595879414,-0.9947,0.0489,0.0922,-0.3659,0.0000,-0.1829
1595879414,-0.9963,0.0496,0.0919,-0.3049,0.0610,-0.3659
1595879414,-0.9960,0.0475,0.0918,-0.2439,0.0000,-0.3659
1595879414,-0.9958,0.0475,0.0953,-0.3049,-0.0610,-0.1829
1595879414,-0.9938,0.0489,0.0937,-0.3659,-0.0610,0.0000
1595879414,-0.9966,0.0490,0.0911,-0.2439,-0.1220,0.2439
1595879414,-0.9960,0.0505,0.0934,-0.3049,-0.1220,0.2439
1595879414,-0.9974,0.0496,0.0928,-0.2439,-0.0610,-0.0610
1595879415,-0.9941,0.0486,0.0909,-0.2439,0.0610,-0.2439
1595879415,-0.9962,0.0470,0.0933,-0.3049,0.0000,-0.3049
1595879415,-0.9940,0.0474,0.0936,-0.2439,-0.0610,-0.3049
1595879415,-0.9938,0.0471,0.0945,-0.3659,-0.1220,-0.1829
1595879415,-0.9942,0.0477,0.0933,-0.3049,-0.0610,0.0000
1595879415,-0.9965,0.0483,0.0938,-0.3049,0.0000,0.0000
1595879415,-0.9932,0.0494,0.0929,-0.3049,-0.0610,0.0610
1595879415,-0.9944,0.0502,0.0928,-0.3659,-0.0610,0.0000
1595879415,-0.9957,0.0486,0.0923,-0.3049,-0.0610,-0.1220
1595879415,-0.9955,0.0486,0.0939,-0.3049,0.0000,-0.1829
1595879415,-0.9976,0.0493,0.0939,-0.3659,0.0000,-0.1829
1595879415,-0.9962,0.0469,0.0922,-0.3659,0.0000,-0.2439
1595879415,-0.9961,0.0477,0.0936,-0.2439,-0.0610,0.0000
1595879415,-0.9966,0.0480,0.0923,-0.4268,-0.1220,0.0000
1595879415,-0.9955,0.0505,0.0918,-0.3659,0.0000,0.0610
1595879415,-0.9956,0.0504,0.0903,-0.3049,0.0000,0.0000
1595879415,-0.9954,0.0516,0.0939,-0.2439,-0.0610,-0.0610
1595879415,-0.9953,0.0493,0.0932,-0.3049,0.0000,-0.0610
1595879415,-0.9941,0.0484,0.0901,-0.2439,-0.0610,-0.0610
1595879415,-0.9955,0.0491,0.0918,-0.2439,-0.0610,-0.1829
1595879415,-0.9966,0.0468,0.0938,-0.3659,0.0000,-0.3049
1595879415,-0.9972,0.0491,0.0934,-0.3049,0.0000,-0.1829
1595879415,-0.9964,0.0476,0.0930,-0.3049,0.0000,0.0610
1595879415,-0.9951,0.0479,0.0942,-0.2439,-0.0610,0.1829
1595879415,-0.9949,0.0497,0.0947,-0.3049,-0.1220,0.0610
1595879415,-0.9937,0.0521,0.0947,-0.3049,-0.1220,0.0000
1595879415,-0.9956,0.0497,0.0930,-0.3659,0.0000,-0.1220
1595879415,-0.9971,0.0479,0.0923,-0.3659,0.0610,-0.2439
1595879415,-0.9967,0.0487,0.0930,-0.3049,0.0000,-0.2439
1595879415,-0.9965,0.0514,0.0933,-0.3049,-0.0610,-0.1829
1595879415,-0.9956,0.0474,0.0917,-0.2439,-0.0610,-0.0610
1595879415,-0.9962,0.0493,0.0941,-0.3049,0.0000,0.0000
1595879415,-0.9963,0.0498,0.0928,-0.3659,0.0000,0.0000
1595879415,-0.9952,0.0505,0.0923,-0.3049,0.0000,-0.0610
1595879415,-0.9952,0.0513,0.0933,-0.3049,-0.0610,-0.0610
1595879415,-0.9962,0.0472,0.0924,-0.3049,0.0000,-0.1829
1595879415,-0.9963,0.0481,0.0931,-0.3659,-0.0610,-0.3049
1595879415,-0.9956,0.0493,0.0937,-0.3049,-0.0610,-0.3049
1595879415,-0.9955,0.0485,0.0923,-0.3049,-0.0610,-0.1829
1595879415,-0.9949,0.0507,0.0923,-0.3659,-0.0610,0.0000
1595879415,-0.9960,0.0508,0.0948,-0.2439,0.0000,0.1220
1595879415,-0.9966,0.0504,0.0948,-0.2439,-0.0610,0.0610
1595879415,-0.9959,0.0500,0.0938,-0.3049,-0.1220,-0.0610
1595879415,-0.9958,0.0488,0.0940,-0.3049,-0.0610,-0.1220
1595879415,-0.9962,0.0490,0.0925,-0.3049,0.0610,-0.2439
1595879415,-0.9946,0.0491,0.0944,-0.3049,0.0000,-0.2439
1595879415,-0.9952,0.0480,0.0906,-0.2439,-0.0610,-0.1829
1595879415,-0.9944,0.0485,0.0918,-0.1829,0.0000,-0.0610
1595879415,-0.9963,0.0500,0.0918,-0.3049,0.0610,0.0610
1595879415,-0.9974,0.0515,0.0924,-0.3049,0.0000,0.0610
1595879415,-0.9946,0.0497,0.0927,-0.3049,-0.0610,0.0000
1595879415,-0.9944,0.0493,0.0918,-0.3049,-0.0610,-0.1220
1595879415,-0.9958,0.0499,0.0923,-0.3659,-0.0610,-0.2439
1595879415,-0.9947,0.0490,0.0939,-0.3049,0.0000,-0.1829
1595879415,-0.9976,0.0472,0.0929,-0.3049,0.0610,-0.1829
1595879415,-0.9962,0.0483,0.0939,-0.2439,0.0000,-0.1220
1595879415,-0.9946,0.0487,0.0933,-0.3049,-0.0610,0.0000
1595879415,-0.9958,0.0486,0.0946,-0.3049,-0.0610,0.1220
1595879415,-0.9938,0.0508,0.0932,-0.3049,-0.0610,0.0610
1595879415,-0.9972,0.0477,0.0937,-0.3049,0.0000,0.0000
1595879415,-0.9963,0.0493,0.0942,-0.2439,-0.0610,-0.1829
1595879415,-0.9966,0.0483,0.0950,-0.3049,0.0000,-0.3049
1595879415,-0.9968,0.0487,0.0944,-0.3049,0.0610,-0.3049
1595879415,-0.9958,0.0489,0.0949,-0.3659,0.0610,-0.1829
1595879415,-0.9942,0.0495,0.0925,-0.2439,0.0610,0.0610
1595879415,-0.9949,0.0500,0.0919,-0.2439,0.0000,0.1829
1595879415,-0.9957,0.0499,0.0946,-0.2439,-0.0610,0.0610
1595879415,-0.9957,0.0488,0.0942,-0.3049,0.0000,-0.0610
1595879415,-0.9954,0.0494,0.0919,-0.2439,0.0000,-0.1829
1595879415,-0.9967,0.0478,0.0939,-0.3659,-0.0610,-0.2439
1595879415,-0.9960,0.0482,0.0941,-0.3659,0.0000,-0.1829
1595879415,-0.9944,0.0519,0.0934,-0.2439,0.0000,-0.0610
1595879415,-0.9944,0.0494,0.0922,-0.1829,-0.0610,0.0000
1595879415,-0.9962,0.0490,0.0949,-0.1829,0.0000,0.0000
1595879415,-0.9954,0.0508,0.0926,-0.3049,0.0000,0.0000
1595879415,-0.9960,0.0490,0.0927,-0.2439,-0.0610,-0.1220
1595879415,-0.9945,0.0490,0.0918,-0.2439,0.0000,-0.1829
1595879415,-0.9958,0.0480,0.0922,-0.3049,0.0000,-0.1829
1595879415,-0.9955,0.0478,0.0922,-0.2439,-0.0610,-0.1220
1595879415,-0.9964,0.0508,0.0919,-0.3049,-0.0610,-0.0610
1595879415,-0.9948,0.0507,0.0923,-0.3049,-0.0610,0.0000
1595879415,-0.9932,0.0500,0.0920,-0.3049,-0.0610,0.0000
1595879415,-0.9935,0.0502,0.0933,-0.3659,-0.0610,-0.0610
1595879415,-0.9957,0.0503,0.0927,-0.3049,0.0000,-0.0610
1595879415,-0.9960,0.0486,0.0920,-0.3049,0.0000,-0.0610
1595879415,-0.9953,0.0484,0.0909,-0.3659,0.0000,-0.1220
1595879415,-0.9949,0.0460,0.0920,-0.3049,0.0000,-0.1829
1595879415,-0.9946,0.0502,0.0939,-0.3659,-0.0610,-0.0610
1595879415,-0.9965,0.0515,0.0929,-0.3659,0.0000,-0.0610
1595879415,-0.9970,0.0482,0.0945,-0.2439,-0.0610,-0.0610
1595879415,-0.9974,0.0491,0.0932,-0.3049,0.0000,-0.0610
1595879415,-0.9960,0.0502,0.0920,-0.3049,0.0000,-0.0610
1595879415,-0.9942,0.0490,0.0927,-0.2439,-0.0610,-0.1220
1595879415,-0.9949,0.0494,0.0944,-0.2439,0.0000,-0.0610
1595879415,-0.9954,0.0502,0.0947,-0.3049,0.0000,0.0000
1595879415,-0.9940,0.0486,0.0919,-0.2439,0.0000,0.0000
1595879415,-0.9968,0.0502,0.0910,-0.3049,0.0000,-0.1220
1595879415,-0.9952,0.0479,0.0919,-0.3049,-0.0610,-0.1829
1595879415,-0.9962,0.0475,0.0922,-0.2439,-0.0610,-0.1220
1595879415,-0.9954,0.0488,0.0930,-0.3049,-0.1220,-0.0610
1595879415,-0.9956,0.0507,0.0917,-0.3049,-0.1220,0.0610
1595879416,-0.9962,0.0500,0.0924,-0.2439,0.0000,-0.0610
1595879416,-0.9944,0.0491,0.0935,-0.3049,0.0000,-0.0610
1595879416,-0.9944,0.0485,0.0933,-0.3049,-0.0610,-0.1220
1595879416,-0.9954,0.0468,0.0903,-0.3049,-0.0610,-0.3049
1595879416,-0.9951,0.0497,0.0918,-0.3049,-0.0610,-0.2439
1595879416,-0.9952,0.0485,0.0958,-0.3049,-0.0610,-0.0610
1595879416,-0.9963,0.0488,0.0935,-0.3049,0.0000,0.0000
1595879416,-0.9960,0.0504,0.0924,-0.2439,0.0000,0.0000
1595879416,-0.9963,0.0485,0.0947,-0.3049,0.0000,0.0000
1595879416,-0.9950,0.0491,0.0928,-0.3049,-0.0610,-0.1829
1595879416,-0.9965,0.0483,0.0922,-0.1829,-0.0610,-0.2439
1595879416,-0.9952,0.0475,0.0923,-0.2439,-0.1220,-0.1220
1595879416,-0.9955,0.0477,0.0944,-0.3659,0.0610,-0.1220
1595879416,-0.9962,0.0486,0.0945,-0.3049,0.0000,-0.0610
1595879416,-0.9960,0.0510,0.0914,-0.2439,-0.0610,0.0000
1595879416,-0.9964,0.0491,0.0908,-0.2439,0.0000,0.0000
1595879416,-0.9968,0.0485,0.0948,-0.2439,0.0000,-0.1220
1595879416,-0.9962,0.0505,0.0925,-0.2439,0.0000,-0.1220
1595879416,-0.9966,0.0500,0.0924,-0.3049,-0.0610,-0.1220
1595879416,-0.9941,0.0494,0.0929,-0.4268,0.0000,-0.1829
1595879416,-0.9962,0.0494,0.0927,-0.3049,-0.0610,-0.1220
1595879416,-0.9957,0.0497,0.0907,-0.3049,-0.0610,0.0000
1595879416,-0.9952,0.0516,0.0911,-0.1829,-0.0610,0.0000
1595879416,-0.9944,0.0509,0.0912,-0.2439,-0.0610,-0.0610
1595879416,-0.9948,0.0490,0.0966,-0.2439,0.0000,-0.0610
1595879416,-0.9973,0.0500,0.0948,-0.2439,0.0610,-0.0610
1595879416,-0.9954,0.0478,0.0928,-0.3049,0.0000,-0.1220
1595879416,-0.9957,0.0491,0.0939,-0.2439,-0.0610,-0.1220
1595879416,-0.9948,0.0508,0.0932,-0.2439,-0.1220,-0.1829
1595879416,-0.9944,0.0497,0.0906,-0.3049,0.0000,-0.1220
1595879416,-0.9957,0.0490,0.0944,-0.3049,-0.0610,0.0000
1595879416,-0.9951,0.0495,0.0943,-0.2439,0.0000,-0.0610
1595879416,-0.9958,0.0490,0.0955,-0.3049,0.0000,-0.2439
1595879416,-0.9951,0.0488,0.0924,-0.3049,0.0000,-0.1220
1595879416,-0.9954,0.0499,0.0934,-0.2439,0.0000,0.0000
1595879416,-0.9944,0.0497,0.0912,-0.3049,0.0000,0.0000
1595879416,-0.9979,0.0499,0.0922,-0.2439,-0.0610,0.0610
1595879416,-0.9966,0.0479,0.0931,-0.2439,0.0000,-0.0610
1595879416,-0.9977,0.0484,0.0935,-0.4268,0.0000,-0.2439
1595879416,-0.9955,0.0512,0.0930,-0.3659,-0.0610,-0.2439
1595879416,-0.9958,0.0480,0.0934,-0.3659,-0.0610,-0.1220
1595879416,-0.9966,0.0488,0.0945,-0.3659,-0.0610,0.0610
1595879416,-0.9966,0.0499,0.0944,-0.3049,-0.1220,0.1220
1595879416,-0.9961,0.0491,0.0914,-0.2439,-0.0610,0.0610
1595879416,-0.9960,0.0495,0.0928,-0.3049,0.0000,0.0000
1595879416,-0.9942,0.0493,0.0927,-0.3659,0.0000,-0.1829
1595879416,-0.9952,0.0475,0.0936,-0.3049,-0.0610,-0.1829
1595879416,-0.9945,0.0462,0.0936,-0.2439,-0.0610,-0.1220
1595879416,-0.9951,0.0479,0.0931,-0.2439,-0.0610,-0.0610
1595879416,-0.9956,0.0487,0.0929,-0.3049,-0.0610,-0.0610
1595879416,-0.9975,0.0485,0.0938,-0.2439,0.0000,0.0000
1595879416,-0.9968,0.0499,0.0923,-0.3049,0.0610,0.0000
1595879416,-0.9942,0.0483,0.0938,-0.1829,-0.0610,-0.1220
1595879416,-0.9961,0.0492,0.0933,-0.2439,0.0000,-0.1829
1595879416,-0.9971,0.0498,0.0909,-0.3049,-0.0610,-0.1829
1595879416,-0.9944,0.0472,0.0917,-0.3049,0.0000,-0.1829
1595879416,-0.9947,0.0490,0.0934,-0.2439,0.0000,-0.1220
1595879416,-0.9944,0.0482,0.0957,-0.2439,-0.0610,0.0000
1595879416,-0.9958,0.0511,0.0931,-0.3049,0.0000,0.0610
1595879416,-0.9956,0.0504,0.0930,-0.3659,0.0000,-0.0610
1595879416,-0.9973,0.0506,0.0952,-0.2439,0.0000,-0.0610
1595879416,-0.9963,0.0476,0.0932,-0.3659,-0.0610,-0.1829
1595879416,-0.9956,0.0480,0.0919,-0.3659,-0.1220,-0.1829
1595879416,-0.9973,0.0497,0.0934,-0.3659,-0.0610,-0.1829
1595879416,-0.9962,0.0479,0.0960,-0.3049,-0.0610,-0.0610
1595879416,-0.9940,0.0472,0.0942,-0.3659,-0.0610,0.0610
1595879416,-0.9963,0.0487,0.0927,-0.3049,0.0610,0.0000
1595879416,-0.9960,0.0486,0.0931,-0.2439,0.0000,-0.0610
1595879416,-0.9945,0.0487,0.0914,-0.3049,-0.0610,-0.0610
1595879416,-0.9936,0.0479,0.0933,-0.2439,0.0000,-0.2439
1595879416,-0.9946,0.0496,0.0933,-0.2439,-0.0610,-0.2439
1595879416,-0.9935,0.0492,0.0934,-0.3049,-0.0610,-0.2439
1595879416,-0.9962,0.0474,0.0939,-0.3049,-0.0610,-0.0610
1595879416,-0.9943,0.0503,0.0931,-0.1829,0.0000,0.0610
1595879416,-0.9962,0.0508,0.0950,-0.3049,0.0000,0.0000
1595879416,-0.9963,0.0500,0.0931,-0.3659,-0.0610,-0.0610
1595879416,-0.9939,0.0499,0.0928,-0.3049,0.0000,-0.1220
1595879416,-0.9941,0.0493,0.0932,-0.3049,0.0000,-0.0610
1595879416,-0.9969,0.0502,0.0923,-0.3049,0.0000,-0.1220
1595879416,-0.9946,0.0493,0.0928,-0.2439,-0.0610,-0.1220
1595879416,-0.9943,0.0485,0.0906,-0.3049,0.0000,-0.0610
1595879416,-0.9966,0.0495,0.0919,-0.3049,0.0610,-0.1220
1595879416,-0.9962,0.0497,0.0936,-0.3659,-0.0610,-0.0610
1595879416,-0.9952,0.0510,0.0942,-0.3049,-0.0610,0.0000
1595879416,-0.9966,0.0495,0.0947,-0.3049,-0.0610,0.0000
1595879416,-0.9973,0.0503,0.0926,-0.3659,0.0000,-0.0610
1595879416,-0.9953,0.0491,0.0914,-0.3049,-0.0610,-0.1220
1595879416,-0.9952,0.0485,0.0922,-0.3659,0.0000,-0.1829
1595879416,-0.9958,0.0483,0.0937,-0.3049,-0.1220,-0.1220
1595879416,-0.9938,0.0494,0.0944,-0.3049,-0.0610,0.0000
1595879416,-0.9953,0.0490,0.0916,-0.3049,0.0000,-0.0610
1595879416,-0.9962,0.0481,0.0933,-0.3049,-0.0610,-0.1220
1595879416,-0.9942,0.0507,0.0952,-0.3049,-0.0610,-0.0610
1595879416,-0.9965,0.0511,0.0942,-0.3049,-0.0610,-0.0610
1595879416,-0.9947,0.0499,0.0923,-0.3049,-0.0610,-0.1829
1595879416,-0.9948,0.0494,0.0929,-0.3659,-0.0610,-0.1220
1595879416,-0.9943,0.0497,0.0928,-0.3049,0.0000,-0.0610
1595879416,-0.9955,0.0508,0.0918,-0.2439,0.0000,0.0000
1595879416,-0.9942,0.0491,0.0950,-0.3049,-0.0610,-0.0610
1595879416,-0.9991,0.0499,0.0927,-0.2439,0.0000,-0.1220
1595879416,-0.9963,0.0496,0.0919,-0.3049,-0.0610,-0.2439
1595879416,-0.9946,0.0469,0.0911,-0.3659,-0.0610,-0.1829
1595879417,-0.9960,0.0477,0.0918,-0.3659,0.0000,-0.1220
1595879417,-0.9964,0.0477,0.0916,-0.3049,0.0000,0.0000
1595879417,-0.9971,0.0485,0.0934,-0.3049,-0.0610,0.0000
1595879417,-0.9965,0.0501,0.0952,-0.3049,0.0000,-0.1220
1595879417,-0.9953,0.0495,0.0931,-0.2439,-0.0610,-0.2439
1595879417,-0.9957,0.0502,0.0939,-0.3659,0.0000,-0.1829
1595879417,-0.9969,0.0497,0.0937,-0.3659,-0.0610,-0.0610
1595879417,-0.9970,0.0494,0.0955,-0.3049,-0.0610,-0.0610
1595879417,-0.9947,0.0490,0.0942,-0.3049,-0.0610,-0.1220
1595879417,-0.9958,0.0480,0.0941,-0.2439,-0.1220,-0.0610
1595879417,-0.9953,0.0494,0.0920,-0.3049,0.0000,-0.1220
1595879417,-0.9949,0.0502,0.0923,-0.3049,-0.0610,-0.1220
1595879417,-0.9942,0.0499,0.0941,-0.3049,-0.0610,-0.1220
1595879417,-0.9955,0.0482,0.0938,-0.3049,0.0000,-0.1829
1595879417,-0.9950,0.0485,0.0940,-0.3049,0.0000,-0.1829
1595879417,-0.9946,0.0492,0.0932,-0.3049,-0.0610,-0.1220
1595879417,-0.9962,0.0504,0.0921,-0.2439,-0.0610,0.0610
1595879417,-0.9941,0.0514,0.0906,-0.3049,-0.0610,0.0610
1595879417,-0.9946,0.0505,0.0939,-0.3049,-0.0610,0.0610
1595879417,-0.9944,0.0488,0.0933,-0.2439,-0.1220,-0.1220
1595879417,-0.9939,0.0491,0.0931,-0.3659,-0.0610,-0.2439
1595879417,-0.9962,0.0494,0.0919,-0.2439,-0.0610,-0.3049
1595879417,-0.9956,0.0498,0.0933,-0.3049,-0.0610,-0.1829
1595879417,-0.9954,0.0483,0.0916,-0.3659,-0.1220,0.0000
1595879417,-0.9958,0.0468,0.0884,-0.3659,-0.1220,0.0000
1595879417,-0.9964,0.0499,0.0921,-0.2439,0.0000,0.0610
1595879417,-0.9980,0.0511,0.0930,-0.2439,-0.0610,0.0610
1595879417,-0.9973,0.0502,0.0933,-0.3659,-0.0610,-0.0610
1595879417,-0.9960,0.0491,0.0939,-0.2439,0.0000,-0.1829
1595879417,-0.9949,0.0508,0.0959,-0.2439,-0.0610,-0.1829
1595879417,-0.9949,0.0482,0.0935,-0.2439,-0.0610,-0.1829
1595879417,-0.9956,0.0498,0.0922,-0.2439,-0.0610,0.0000
1595879417,-0.9972,0.0491,0.0931,-0.1829,0.0000,0.0610
1595879417,-0.9962,0.0488,0.0918,-0.3049,-0.0610,0.0000
1595879417,-0.9951,0.0474,0.0945,-0.3659,-0.0610,-0.0610
1595879417,-0.9957,0.0494,0.0953,-0.3049,0.0000,-0.1829
1595879417,-0.9962,0.0493,0.0903,-0.3049,-0.0610,-0.1829
1595879417,-0.9958,0.0493,0.0898,-0.3049,0.0000,-0.0610
1595879417,-0.9956,0.0488,0.0927,-0.3049,-0.0610,0.0000
1595879417,-0.9973,0.0496,0.0929,-0.2439,0.0000,-0.0610
1595879417,-0.9968,0.0501,0.0898,-0.2439,-0.0610,-0.1220
1595879417,-0.9962,0.0496,0.0919,-0.2439,-0.1220,-0.1220
1595879417,-0.9958,0.0502,0.0967,-0.2439,-0.0610,0.0000
1595879417,-0.9940,0.0502,0.0931,-0.2439,0.0000,-0.0610
1595879417,-0.9974,0.0495,0.0932,-0.2439,0.0000,-0.0610
1595879417,-0.9945,0.0503,0.0916,-0.3049,-0.0610,-0.0610
1595879417,-0.9955,0.0497,0.0925,-0.3049,0.0610,0.0000
1595879417,-0.9962,0.0510,0.0931,-0.2439,0.0000,0.0610
1595879417,-0.9953,0.0499,0.0916,-0.2439,-0.0610,0.0000
1595879417,-0.9957,0.0482,0.0935,-0.3049,-0.0610,-0.1829
1595879417,-0.9955,0.0486,0.0919,-0.3049,-0.1220,-0.1220
1595879417,-0.9960,0.0471,0.0944,-0.2439,-0.0610,-0.0610
1595879417,-0.9964,0.0479,0.0926,-0.2439,0.0000,-0.0610
1595879417,-0.9953,0.0496,0.0925,-0.2439,-0.1220,0.0000
1595879417,-0.9960,0.0500,0.0936,-0.3049,-0.1220,0.0000
1595879417,-0.9944,0.0504,0.0950,-0.2439,-0.0610,-0.1220
1595879417,-0.9951,0.0512,0.0926,-0.3049,-0.0610,-0.2439
1595879417,-0.9955,0.0508,0.0929,-0.3049,-0.0610,-0.1829
1595879417,-0.9962,0.0503,0.0932,-0.2439,-0.0610,-0.1220
1595879417,-0.9958,0.0515,0.0941,-0.2439,-0.0610,0.0000
1595879417,-0.9949,0.0489,0.0944,-0.2439,0.0000,0.0610
1595879417,-0.9943,0.0515,0.0938,-0.1829,-0.1220,0.0610
1595879417,-0.9948,0.0511,0.0927,-0.2439,-0.0610,-0.1220
1595879417,-0.9953,0.0492,0.0925,-0.3049,0.0000,-0.1220
1595879417,-0.9969,0.0494,0.0909,-0.3049,0.0000,-0.1829
1595879417,-0.9962,0.0494,0.0936,-0.3049,0.0000,-0.1829
1595879417,-0.9978,0.0497,0.0920,-0.3049,-0.0610,-0.1220
1595879417,-0.9958,0.0499,0.0925,-0.3049,-0.0610,0.0000
1595879417,-0.9962,0.0511,0.0944,-0.3049,-0.0610,0.1220
1595879417,-0.9959,0.0507,0.0942,-0.2439,0.0000,0.0000
1595879417,-0.9944,0.0483,0.0919,-0.3659,-0.0610,-0.1220
1595879417,-0.9949,0.0508,0.0943,-0.3049,0.0000,-0.3049
1595879417,-0.9949,0.0497,0.0945,-0.3049,-0.0610,-0.3049
1595879417,-0.9968,0.0490,0.0914,-0.3049,-0.0610,-0.0610
1595879417,-0.9944,0.0486,0.0931,-0.2439,-0.1220,0.0000
1595879417,-0.9946,0.0487,0.0934,-0.3049,-0.0610,0.0610
1595879417,-0.9966,0.0486,0.0936,-0.3049,0.0000,0.0000
1595879417,-0.9961,0.0507,0.0927,-0.2439,-0.0610,-0.1220
1595879417,-0.9958,0.0492,0.0917,-0.1829,0.0000,-0.2439
1595879417,-0.9951,0.0510,0.0944,-0.3049,-0.0610,-0.1829
1595879417,-0.9919,0.0485,0.0955,-0.3049,0.0000,-0.1829
1595879417,-0.9954,0.0478,0.0938,-0.3049,-0.0610,-0.1829
1595879417,-0.9969,0.0483,0.0933,-0.2439,-0.0610,-0.1829
1595879417,-0.9959,0.0493,0.0941,-0.2439,-0.1220,0.0610
1595879417,-0.9968,0.0500,0.0960,-0.2439,0.0000,0.1829
1595879417,-0.9952,0.0506,0.0938,-0.3659,-0.0610,0.0610
1595879417,-0.9943,0.0493,0.0925,-0.3049,0.0000,-0.2439
1595879417,-0.9948,0.0475,0.0922,-0.3049,0.0000,-0.3659
1595879417,-0.9957,0.0491,0.0909,-0.2439,-0.0610,-0.3049
1595879417,-0.9960,0.0488,0.0922,-0.2439,-0.0610,-0.1220
1595879417,-0.9956,0.0490,0.0912,-0.2439,0.0000,0.0610
1595879417,-0.9945,0.0508,0.0908,-0.3659,0.0000,0.0610
1595879417,-0.9948,0.0510,0.0916,-0.3049,0.0000,0.0610
1595879417,-0.9956,0.0503,0.0939,-0.3049,-0.1220,0.0000
1595879417,-0.9970,0.0475,0.0939,-0.3659,-0.0610,-0.0610
1595879417,-0.9963,0.0486,0.0946,-0.3659,0.0000,-0.1829
1595879417,-0.9951,0.0479,0.0933,-0.4268,0.0000,-0.3049
1595879417,-0.9935,0.0478,0.0927,-0.3049,0.0000,-0.3659
1595879417,-0.9954,0.0486,0.0938,-0.3049,0.0000,-0.1829
1595879417,-0.9962,0.0499,0.0929,-0.2439,0.0000,0.0610
1595879417,-0.9951,0.0518,0.0944,-0.3049,-0.0610,0.2439
1595879417,-0.9975,0.0515,0.0931,-0.3659,-0.0610,0.1829
1595879418,-0.9965,0.0505,0.0932,-0.3049,0.0000,0.0000
1595879418,-0.9940,0.0491,0.0920,-0.3049,-0.0610,-0.1829
1595879418,-0.9970,0.0485,0.0948,-0.3049,0.0000,-0.3049
1595879418,-0.9958,0.0487,0.0937,-0.3659,0.0000,-0.1829
1595879418,-0.9973,0.0488,0.0915,-0.3049,-0.0610,-0.0610
1595879418,-0.9956,0.0497,0.0911,-0.3659,-0.0610,-0.0610
1595879418,-0.9945,0.0500,0.0932,-0.3659,-0.0610,-0.0610
1595879418,-0.9960,0.0472,0.0930,-0.3659,0.0000,-0.0610
1595879418,-0.9968,0.0493,0.0933,-0.3659,-0.0610,-0.0610
1595879418,-0.9953,0.0508,0.0939,-0.3049,0.0000,-0.0610
1595879418,-0.9967,0.0485,0.0923,-0.3049,0.0000,-0.1829
1595879418,-0.9965,0.0478,0.0935,-0.2439,0.0000,-0.1829
1595879418,-0.9947,0.0499,0.0923,-0.2439,0.0000,-0.1220
1595879418,-0.9944,0.0494,0.0932,-0.3659,0.0610,0.0000
1595879418,-0.9952,0.0507,0.0952,-0.3049,0.0000,0.0610
1595879418,-0.9960,0.0506,0.0939,-0.2439,-0.1220,-0.0610
1595879418,-0.9951,0.0463,0.0922,-0.3049,-0.1220,-0.0610
1595879418,-0.9957,0.0485,0.0916,-0.3049,-0.0610,-0.1220
1595879418,-0.9985,0.0489,0.0925,-0.2439,0.0000,-0.2439
1595879418,-0.9970,0.0494,0.0925,-0.4268,0.0000,-0.0610
1595879418,-0.9941,0.0482,0.0912,-0.2439,-0.0610,-0.0610
1595879418,-0.9968,0.0479,0.0936,-0.3659,-0.0610,-0.0610
1595879418,-0.9939,0.0496,0.0921,-0.3659,0.0000,-0.0610
1595879418,-0.9957,0.0501,0.0918,-0.2439,0.0000,-0.1220
1595879418,-0.9951,0.0481,0.0938,-0.3049,-0.0610,-0.0610
1595879418,-0.9955,0.0492,0.0960,-0.2439,0.0000,0.0000
1595879418,-0.9963,0.0476,0.0944,-0.3049,-0.0610,-0.1220
1595879418,-0.9956,0.0505,0.0932,-0.3659,-0.1220,-0.0610
1595879418,-0.9958,0.0500,0.0927,-0.3049,-0.0610,-0.0610
1595879418,-0.9948,0.0486,0.0929,-0.3049,-0.0610,-0.1829
1595879418,-0.9955,0.0500,0.0924,-0.3659,0.0000,-0.2439
1595879418,-0.9962,0.0483,0.0936,-0.3049,0.0610,-0.1220
1595879418,-0.9933,0.0479,0.0924,-0.3049,0.0000,0.0000
1595879418,-0.9947,0.0504,0.0955,-0.3659,0.0610,0.0000
1595879418,-0.9963,0.0511,0.0958,-0.2439,0.0610,0.0610
1595879418,-0.9980,0.0521,0.0943,-0.2439,0.0000,0.0000
1595879418,-0.9963,0.0490,0.0920,-0.2439,-0.1220,-0.1220
1595879418,-0.9961,0.0491,0.0919,-0.3659,-0.0610,-0.2439
1595879418,-0.9961,0.0501,0.0925,-0.4878,0.0000,-0.2439
1595879418,-0.9968,0.0512,0.0927,-0.4268,0.0000,-0.0610
1595879418,-0.9962,0.0500,0.0924,-0.2439,-0.0610,0.0000
1595879418,-0.9968,0.0520,0.0919,-0.2439,-0.0610,0.1220
1595879418,-0.9963,0.0508,0.0948,-0.3659,-0.0610,0.1220
1595879418,-0.9946,0.0504,0.0934,-0.3049,-0.0610,0.0000
1595879418,-0.9964,0.0492,0.0936,-0.3049,0.0000,-0.2439
1595879418,-0.9966,0.0483,0.0936,-0.3049,-0.0610,-0.3049
1595879418,-0.9948,0.0490,0.0927,-0.3049,0.0000,-0.3049
1595879418,-0.9955,0.0490,0.0927,-0.3049,0.0000,-0.2439
1595879418,-0.9942,0.0484,0.0954,-0.3049,-0.0610,0.0000
1595879418,-0.9952,0.0496,0.0919,-0.3049,0.0000,0.1220
1595879418,-0.9959,0.0518,0.0908,-0.2439,-0.0610,0.1220
1595879418,-0.9954,0.0494,0.0930,-0.2439,-0.0610,0.0610
1595879418,-0.9954,0.0498,0.0947,-0.2439,-0.0610,-0.1829
1595879418,-0.9962,0.0489,0.0927,-0.3049,0.0000,-0.3049
1595879418,-0.9941,0.0485,0.0917,-0.3049,0.0000,-0.2439
1595879418,-0.9955,0.0475,0.0936,-0.3659,0.0000,-0.1220
1595879418,-0.9951,0.0488,0.0931,-0.3659,0.0000,0.0000
1595879418,-0.9960,0.0489,0.0924,-0.2439,-0.0610,0.0610
1595879418,-0.9938,0.0502,0.0948,-0.2439,-0.1829,0.1220
1595879418,-0.9973,0.0494,0.0937,-0.3049,0.0000,-0.0610
1595879418,-0.9940,0.0503,0.0934,-0.3049,0.0610,-0.1829
1595879418,-0.9944,0.0470,0.0926,-0.3049,-0.0610,-0.2439
1595879418,-0.9953,0.0469,0.0930,-0.3049,-0.0610,-0.3049
1595879418,-0.9958,0.0452,0.0918,-0.2439,-0.0610,-0.1829
1595879418,-0.9967,0.0492,0.0914,-0.3049,-0.0610,0.0000
1595879418,-0.9954,0.0507,0.0948,-0.3659,0.0000,0.1220
1595879418,-0.9963,0.0483,0.0941,-0.2439,-0.0610,0.0610
1595879418,-0.9963,0.0476,0.0923,-0.1829,0.0000,-0.0610
1595879418,-0.9963,0.0483,0.0931,-0.3049,0.0000,-0.1220
1595879418,-0.9935,0.0470,0.0942,-0.3659,-0.0610,-0.2439
1595879418,-0.9965,0.0487,0.0939,-0.2439,-0.0610,-0.1220
1595879418,-0.9968,0.0511,0.0936,-0.3049,-0.0610,-0.1829
1595879418,-0.9953,0.0503,0.0945,-0.3049,-0.0610,-0.1220
1595879418,-0.9956,0.0485,0.0917,-0.3049,0.0000,-0.0610
1595879418,-0.9965,0.0512,0.0941,-0.2439,0.0000,-0.0610
1595879418,-0.9960,0.0515,0.0928,-0.3049,0.0610,0.0000
1595879418,-0.9960,0.0506,0.0938,-0.3659,0.0000,-0.0610
1595879418,-0.9958,0.0499,0.0931,-0.3049,-0.0610,-0.1829
1595879418,-0.9944,0.0504,0.0924,-0.3049,-0.0610,-0.1220
1595879418,-0.9955,0.0499,0.0929,-0.3659,0.0000,-0.1220
1595879418,-0.9961,0.0495,0.0930,-0.2439,-0.0610,-0.0610
1595879418,-0.9982,0.0504,0.0936,-0.3049,0.0000,0.0000
1595879418,-0.9949,0.0487,0.0942,-0.2439,0.0000,-0.1220
1595879418,-0.9968,0.0482,0.0942,-0.2439,0.0000,-0.1220
1595879418,-0.9954,0.0499,0.0948,-0.2439,0.0000,-0.0610
1595879418,-0.9963,0.0496,0.0936,-0.2439,-0.0610,-0.0610
1595879418,-0.9955,0.0493,0.0933,-0.2439,-0.1220,-0.1220
1595879418,-0.9952,0.0478,0.0915,-0.4268,-0.1220,-0.1220
1595879418,-0.9937,0.0487,0.0923,-0.3049,-0.0610,-0.0610
1595879418,-0.9968,0.0480,0.0943,-0.3049,0.0000,-0.1220
1595879418,-0.9965,0.0466,0.0950,-0.3049,-0.1220,-0.0610
1595879418,-0.9940,0.0530,0.0931,-0.3049,-0.1220,0.0000
1595879418,-0.9979,0.0512,0.0938,-0.3049,-0.1220,-0.0610
1595879418,-0.9962,0.0474,0.0922,-0.2439,0.0000,-0.0610
1595879418,-0.9968,0.0499,0.0912,-0.3659,-0.0610,-0.1220
1595879418,-0.9944,0.0498,0.0936,-0.3049,0.0610,-0.1829
1595879418,-0.9963,0.0493,0.0918,-0.3049,0.0000,-0.0610
1595879418,-0.9957,0.0480,0.0927,-0.2439,-0.1220,-0.0610
1595879418,-0.9960,0.0488,0.0946,-0.3659,0.0610,-0.1220
1595879418,-0.9957,0.0490,0.0942,-0.4268,0.0000,-0.0610
1595879418,-0.9962,0.0496,0.0921,-0.3659,0.0000,0.0000
1595879419,-0.9951,0.0491,0.0924,-0.3049,0.0610,-0.0610
1595879419,-0.9955,0.0547,0.0873,-0.3049,0.0610,-0.1220
1595879419,-0.9934,0.0798,0.0980,-0.4268,-0.1220,-0.1829
1595879419,-0.9982,0.0479,0.0975,-2.4390,-0.7317,-2.9268
1595879419,-0.9963,-0.0252,0.0869,-1.4634,0.7317,-9.5732
1595879419,-0.9993,0.0291,0.0999,-0.6707,0.4878,-6.5854
1595879419,-0.9924,0.1136,0.1020,0.7927,-0.9756,10.3049
1595879419,-0.9964,0.0983,0.0941,1.5244,-0.9146,12.9878
1595879419,-0.9923,0.0535,0.0948,0.1829,0.1220,0.3659
1595879419,-0.9969,0.0107,0.0881,-1.0366,0.8537,-8.6585
1595879419,-0.9966,0.0029,0.0906,-1.2195,0.7317,-8.5976
1595879419,-0.9998,0.0361,0.0917,-0.1220,0.1220,-0.5488
1595879419,-0.9959,0.0711,0.0925,0.6098,-0.5488,7.3171
1595879419,-0.9939,0.0818,0.0964,0.6707,-0.7927,8.3537
1595879419,-0.9968,0.0721,0.0958,0.1829,-0.3659,3.5366
1595879419,-0.9968,0.0474,0.0932,-0.5488,0.1220,-2.6220
1595879419,-0.9958,0.0289,0.0914,-0.9146,0.4268,-5.9756
1595879419,-0.9938,0.0293,0.0904,-0.7927,0.3659,-4.7561
1595879419,-0.9963,0.0422,0.0919,-0.3659,0.0000,-0.4268
1595879419,-0.9969,0.0225,0.0891,0.1220,-0.3049,3.1707
1595879419,-1.0013,-0.0193,0.0870,0.4878,-0.6098,4.8780
1595879419,-1.0052,0.0043,0.0911,1.5244,-1.4634,12.8049
1595879419,-1.0217,0.0249,0.0890,2.9268,-2.9268,27.2561
1595879419,-1.0036,-0.0172,0.0871,3.5366,-4.6951,37.9878
1595879419,-1.0038,-0.0109,0.0869,5.0610,-6.8902,47.5610
1595879419,-0.9919,0.0751,0.0942,7.4390,-8.7805,65.5488
1595879419,-0.9816,0.1262,0.1009,8.0488,-10.8537,82.9878
1595879419,-0.9750,0.1569,0.1086,8.4146,-11.5854,87.9878
1595879419,-0.9776,0.2121,0.1088,8.1707,-11.2195,84.3293
1595879419,-0.9706,0.2280,0.1136,7.0122,-9.7561,75.5488
1595879419,-0.9715,0.2308,0.1155,5.3659,-8.1098,59.0244
1595879419,-0.9709,0.2383,0.1168,3.7195,-5.9146,42.3171
1595879419,-0.9678,0.2415,0.1174,2.2561,-3.7195,26.5244
1595879419,-0.9673,0.2375,0.1179,0.7317,-1.4634,10.3049
1595879419,-0.9685,0.2299,0.1172,-0.8537,0.9146,-5.9756
1595879419,-0.9722,0.2193,0.1146,-2.3780,3.1707,-22.0122
1595879419,-0.9737,0.2118,0.1121,-3.5976,5.1829,-37.2561
1595879419,-0.9675,0.2065,0.1107,-5.0610,7.1341,-51.8902
1595879419,-0.9712,0.1323,0.1039,-6.5854,9.2073,-66.7683
1595879419,-1.0294,-0.1219,0.0751,-8.1098,11.5244,-81.8902
1595879419,-1.0223,-0.0797,0.0769,-5.0000,11.2195,-76.8293
1595879419,-1.0262,0.1146,0.0928,-0.8537,5.7317,-34.0854
1595879419,-0.9604,0.1126,0.1073,-0.5488,1.2195,-7.9268
1595879419,-0.9772,0.0667,0.0986,2.3780,0.1829,-9.9390
1595879419,-1.0376,0.0494,0.0842,2.6829,2.1341,-11.2195
1595879419,-0.9730,-0.0414,0.0889,2.4390,1.5244,-7.6829
1595879419,-1.0513,-0.0982,0.0685,7.3780,-0.1829,-2.5000
1595879419,-1.0020,-0.0035,0.0791,11.5244,-1.8902,12.8049
1595879419,-0.9785,0.1223,0.0983,17.3780,-6.1585,32.9878
1595879419,-0.9380,0.2963,0.1234,20.1220,-7.3780,38.2927
1595879419,-0.9724,0.4351,0.1211,20.4268,-4.2073,19.1463
1595879419,-0.9847,0.3773,0.1266,15.6707,2.5000,-29.6951
1595879419,-1.0209,0.1313,0.1057,11.2195,10.3659,-95.8537
1595879419,-0.9831,0.0023,0.1022,8.4146,14.3902,-142.1951
1595879419,-1.0010,0.0035,0.1017,1.4634,10.4268,-133.2927
1595879419,-1.0001,0.0148,0.0847,-4.7561,5.1220,-69.5732
1595879419,-1.0008,0.0822,0.0949,-11.3415,6.3415,-58.1707
1595879419,-1.0110,0.0368,0.0925,-9.0244,6.5854,-64.5732
1595879419,-0.9952,-0.0505,0.0857,-7.3171,7.8659,-78.4146
1595879419,-0.9824,-0.0815,0.0831,-6.8902,7.8659,-83.5366
1595879419,-0.9835,-0.1158,0.0768,-7.7439,6.8902,-75.4268
1595879419,-0.9839,-0.1141,0.0713,-4.8171,5.7317,-62.6829
1595879419,-0.9849,-0.1225,0.0728,-4.2073,3.9024,-46.0976
1595879419,-0.9824,-0.0986,0.0788,-10.1829,0.0610,-31.4024
1595879419,-0.9977,-0.0820,0.0710,-5.4268,-0.7927,-16.7073
1595879419,-0.9621,-0.1004,0.1577,-1.1585,4.5732,-16.9512
1595879419,-1.0275,0.1044,0.0405,-14.1463,0.5488,8.7195
1595879419,-0.9746,-0.1669,0.0951,13.2317,-4.1463,50.0000
1595879419,-1.0318,0.0944,0.0500,-27.9878,-3.2317,18.1707
1595879419,-0.9915,-0.1728,0.0627,4.8780,-1.8902,13.1707
1595879419,-0.9910,-0.0798,0.0863,-18.2927,3.9024,-41.9512
1595879419,-0.9665,-0.2615,0.0605,2.4390,5.6098,-59.8171
1595879419,-0.9540,-0.3246,0.0517,-1.4024,4.9390,-46.2805
1595879419,-0.9623,-0.2905,0.0582,-0.2439,0.3049,-1.9512
1595879419,-0.9596,-0.2690,0.0640,4.8171,-4.7561,49.5732
1595879419,-0.9673,-0.2444,0.0642,10.1829,-9.2073,98.0488
1595879419,-1.0229,-0.1595,0.0694,15.1829,-13.7195,146.4024
1595879419,-1.0453,0.0132,0.0936,18.2317,-19.0854,192.3781
1595879419,-1.0770,0.2072,0.0853,22.1951,-22.2561,225.4268
1595879419,-0.9410,0.2423,0.1134,22.0732,-25.1829,225.7317
1595879419,-0.9338,0.2510,0.1205,20.4878,-27.9878,199.2683
1595879419,-0.9538,0.2488,0.1133,17.2561,-24.0854,172.9878
1595879419,-0.9564,0.2601,0.1225,14.7561,-21.2195,151.7683
1595879419,-0.9579,0.2772,0.1197,13.2317,-18.9634,135.9756
1595879419,-0.9559,0.2872,0.1208,12.5610,-17.0732,123.1707
1595879419,-0.9467,0.3165,0.1252,11.9512,-15.4268,111.6463
1595879419,-0.9258,0.3214,0.1274,11.3415,-14.0854,101.0976
1595879419,-0.9373,0.3227,0.1254,10.4268,-12.3171,89.0244
1595879419,-0.9474,0.3380,0.1260,8.4146,-10.4268,79.1463
1595879419,-0.9296,0.3572,0.1304,7.3171,-9.2683,71.3415
1595879419,-0.9372,0.3660,0.1259,6.7683,-8.2927,63.1098
1595879419,-0.9294,0.3694,0.1286,5.4878,-6.6463,53.4756
1595879419,-0.9303,0.3718,0.1310,4.6951,-5.5488,44.0854
1595879419,-0.9297,0.3778,0.1302,3.7195,-4.5732,35.9756
1595879419,-0.9282,0.3788,0.1303,2.9268,-3.5366,28.2927
1595879419,-0.9269,0.3795,0.1301,1.9512,-2.5610,20.4268
1595879419,-0.9280,0.3824,0.1323,1.0366,-1.6463,12.6220
1595879419,-0.9275,0.3838,0.1292,0.2439,-0.6707,4.8780
1595879419,-0.9283,0.3799,0.1289,-0.5488,0.4268,-2.7439
1595879419,-0.9279,0.3741,0.1292,-1.4634,1.2805,-10.1220
1595879419,-0.9308,0.3699,0.1337,-2.1341,2.0732,-17.1341
1595879419,-0.9318,0.3654,0.1309,-2.8659,2.8659,-24.0244
1595879420,-0.9342,0.3647,0.1297,-3.6585,3.8415,-30.7317
1595879420,-0.9370,0.3607,0.1261,-4.4512,4.8171,-37.4390
1595879420,-0.9377,0.3496,0.1255,-5.1829,5.7317,-44.7561
1595879420,-0.9401,0.3303,0.1300,-5.9756,6.7073,-52.9268
1595879420,-0.9445,0.3163,0.1259,-6.7683,7.7439,-60.6707
1595879420,-0.9340,0.3136,0.1273,-7.4390,8.7195,-66.5854
1595879420,-0.9400,0.3090,0.1251,-8.1098,9.5122,-72.2561
1595879420,-0.9601,0.2944,0.1207,-9.6341,10.9756,-79.7561
1595879420,-0.9548,0.2730,0.1196,-10.7317,12.4390,-89.3902
1595879420,-0.9574,0.2687,0.1173,-11.2195,13.7195,-98.5976
1595879420,-0.9617,0.2505,0.1166,-11.7683,15.0610,-107.9268
1595879420,-0.9553,0.2419,0.1157,-12.5000,16.9512,-120.0000
1595879420,-0.9517,0.2390,0.1132,-13.2927,18.7805,-133.0488
1595879420,-0.9651,0.2296,0.1103,-14.8780,20.9146,-149.7561
1595879420,-1.0193,0.1700,0.0994,-17.8049,23.4756,-171.0366
1595879420,-1.0861,-0.0319,0.0667,-20.2439,25.8537,-193.6585
1595879420,-0.9996,-0.1564,0.0826,-22.1951,22.8659,-207.2561
1595879420,-0.9930,-0.2361,0.0620,-17.9878,17.0732,-185.6707
1595879420,-0.9637,-0.2726,0.0569,-13.5976,14.6341,-144.5732
1595879420,-0.9656,-0.2734,0.0597,-9.3293,8.7805,-95.4878
1595879420,-0.9656,-0.2701,0.0602,-4.4512,3.9024,-43.5366
1595879420,-0.9661,-0.2593,0.0637,0.7317,-0.8537,7.5610
1595879420,-0.9939,-0.2117,0.0644,5.9146,-5.4878,57.9878
1595879420,-1.0019,-0.1385,0.0699,10.3659,-10.2439,107.0122
1595879420,-1.0401,0.0017,0.0991,13.5976,-15.2439,148.1098
1595879420,-1.0720,0.1787,0.0859,18.1098,-17.9268,178.4146
1595879420,-0.9416,0.2180,0.1190,17.7439,-19.2683,182.8049
1595879420,-0.9677,0.2414,0.1105,16.2805,-22.0732,160.6707
1595879420,-0.9499,0.2502,0.1162,13.7195,-18.4146,135.6098
1595879420,-0.9650,0.2504,0.1176,10.8537,-15.3659,111.2195
1595879420,-0.9613,0.2527,0.1185,8.5976,-12.5000,89.8781
1595879420,-0.9659,0.2529,0.1161,6.7073,-10.0000,71.5244
1595879420,-0.9658,0.2535,0.1146,5.1829,-7.8049,55.7317
1595879420,-0.9658,0.2579,0.1179,3.8415,-5.8537,42.1951
1595879420,-0.9627,0.2619,0.1218,2.8049,-4.2073,29.8780
1595879420,-0.9619,0.2651,0.1216,1.5244,-2.5000,17.7439
1595879420,-0.9642,0.2642,0.1166,0.1829,-0.7317,5.0610
1595879420,-0.9636,0.2569,0.1177,-1.0366,1.0976,-7.7439
1595879420,-0.9656,0.2502,0.1171,-2.3171,2.8049,-20.1220
1595879420,-0.9652,0.2477,0.1177,-3.5366,4.5122,-31.7683
1595879420,-0.9609,0.2469,0.1161,-4.5122,6.1585,-43.4146
1595879420,-0.9620,0.2440,0.1149,-5.7927,7.9268,-56.4024
1595879420,-0.9621,0.2404,0.1154,-7.1951,9.9390,-71.2805
1595879420,-0.9579,0.2372,0.1130,-8.9024,12.3171,-88.4146
1595879420,-0.9819,0.2233,0.1091,-11.2195,15.0610,-108.1707
1595879420,-0.9822,0.1693,0.1044,-13.9024,17.9268,-130.7317
1595879420,-1.0643,0.0488,0.0700,-15.9756,20.3049,-153.1098
1595879420,-1.0144,-0.1312,0.0911,-18.2317,19.6951,-169.0854
1595879420,-0.9855,-0.1874,0.0731,-15.9146,14.2073,-158.5976
1595879420,-0.9884,-0.2257,0.0617,-12.4390,12.7439,-124.1463
1595879420,-0.9681,-0.2522,0.0634,-7.3780,8.1098,-82.2561
1595879420,-0.9701,-0.2391,0.0628,-3.2927,2.9878,-34.5122
1595879420,-0.9954,-0.1891,0.0671,1.4634,-1.6463,16.3415
1595879420,-0.9943,-0.1328,0.0714,5.6707,-6.1585,63.7805
1595879420,-1.0031,-0.0643,0.0930,9.2073,-10.6098,101.9512
1595879420,-1.0461,0.1059,0.0864,13.2317,-14.0244,132.6219
1595879420,-0.9924,0.1970,0.0999,14.8171,-13.7195,148.7805
1595879420,-0.9637,0.2064,0.1146,13.3537,-16.9512,136.0976
1595879420,-0.9707,0.2397,0.1129,11.3415,-15.2439,112.1341
1595879420,-0.9576,0.2485,0.1194,9.0244,-11.7683,89.4512
1595879420,-0.9666,0.2468,0.1142,6.1585,-8.9024,64.6341
1595879420,-0.9654,0.2491,0.1155,3.7195,-5.6098,40.4268
1595879420,-0.9651,0.2451,0.1170,1.4634,-2.4390,17.8049
1595879420,-0.9639,0.2432,0.1165,-0.7317,0.6098,-4.2683
1595879420,-0.9661,0.2408,0.1154,-2.8659,3.5976,-26.1585
1595879420,-0.9698,0.2332,0.1149,-5.0000,6.8293,-48.7195
1595879420,-0.9725,0.1990,0.1124,-7.7439,9.9390,-72.3781
1595879420,-0.9808,0.1662,0.1050,-10.2439,12.9268,-95.9146
1595879420,-1.0670,0.0898,0.0851,-12.0732,15.6707,-115.9756
1595879420,-1.0057,-0.1082,0.0740,-14.2683,16.0366,-132.5610
1595879420,-0.9869,-0.1417,0.0815,-13.9024,11.5244,-130.5488
1595879420,-0.9886,-0.1569,0.0689,-9.6341,9.5732,-99.8171
1595879420,-0.9860,-0.1747,0.0690,-6.3415,7.0122,-64.2073
1595879420,-0.9872,-0.1660,0.0717,-2.8049,2.6220,-27.5610
1595879420,-0.9901,-0.1393,0.0709,0.7317,-1.2195,10.3049
1595879420,-0.9938,-0.1122,0.0737,4.1463,-4.9390,46.0976
1595879420,-1.0073,-0.0217,0.1001,7.5000,-8.4756,78.3537
1595879420,-1.0275,0.1249,0.0849,10.6098,-10.7317,106.2805
1595879420,-0.9916,0.1845,0.1021,11.4024,-10.4878,115.6098
1595879420,-0.9625,0.1947,0.1139,9.9390,-12.8659,100.9146
1595879420,-0.9765,0.2023,0.1094,7.8659,-10.6707,78.0488
1595879420,-0.9716,0.2176,0.1124,5.6098,-7.1951,56.3415
1595879420,-0.9691,0.2247,0.1150,3.4146,-4.6341,35.0000
1595879420,-0.9732,0.2194,0.1121,0.8537,-1.5854,11.7073
1595879420,-0.9724,0.2062,0.1104,-1.5244,1.6463,-12.2561
1595879420,-0.9725,0.1870,0.1074,-3.8415,4.6951,-35.0610
1595879420,-0.9810,0.1731,0.1053,-6.0366,7.5000,-56.0366
1595879420,-1.0217,0.1350,0.0975,-8.0488,10.1829,-75.2439
1595879420,-1.0215,-0.0042,0.0802,-10.0610,12.1341,-93.7195
1595879420,-0.9977,-0.1176,0.0839,-11.5854,10.5488,-104.3293
1595879420,-0.9929,-0.1348,0.0776,-8.6585,7.0122,-87.3781
1595879420,-0.9925,-0.1321,0.0746,-5.5488,5.6098,-54.8781
1595879420,-0.9923,-0.1287,0.0740,-2.4390,2.3780,-20.9756
1595879420,-0.9930,-0.1130,0.0774,0.9756,-1.4024,12.1951
1595879420,-1.0013,-0.0345,0.0930,4.1463,-4.8780,44.5122
1595879420,-1.0129,0.0908,0.0892,7.1951,-7.2561,73.2927
1595879420,-1.0068,0.1569,0.0979,8.5366,-7.2561,85.3659
1595879420,-0.9719,0.1769,0.1098,7.3171,-8.6585,76.2195
1595879420,-0.9783,0.1833,0.1071,5.5488,-7.9268,56.9512
1595879420,-0.9773,0.1849,0.1081,3.4146,-4.6341,35.6707
1595879421,-0.9761,0.1833,0.1094,1.2195,-1.8902,14.5122
1595879421,-0.9769,0.1758,0.1088,-0.9756,0.9756,-6.4024
1595879421,-0.9821,0.1611,0.1066,-3.0488,3.6585,-27.0122
1595879421,-1.0095,0.1224,0.0967,-5.1829,6.3415,-46.8902
1595879421,-1.0118,0.0230,0.0864,-6.7683,8.2927,-64.8781
1595879421,-0.9984,-0.0906,0.0766,-8.2927,7.6829,-74.6341
1595879421,-0.9939,-0.1082,0.0819,-7.2561,5.2439,-64.2073
1595879421,-0.9926,-0.1124,0.0752,-2.9878,2.8049,-35.6098
1595879421,-0.9957,-0.0809,0.0806,-0.6707,0.3659,-4.0854
1595879421,-0.9982,0.0093,0.0912,2.4390,-2.8049,26.8293
1595879421,-1.0057,0.0873,0.0902,4.9390,-4.2683,49.5122
1595879421,-0.9953,0.1315,0.0986,5.3659,-4.6341,55.4268
1595879421,-0.9905,0.1530,0.1050,4.5122,-5.1829,47.3781
1595879421,-0.9771,0.1613,0.1089,2.9268,-4.1463,32.4390
1595879421,-0.9831,0.1572,0.1057,1.2195,-2.0122,14.5122
1595879421,-0.9875,0.1400,0.1036,-0.5488,0.6707,-4.3902
1595879421,-1.0016,0.1093,0.0968,-2.4390,2.9878,-22.4390
1595879421,-0.9995,0.0436,0.0902,-3.8415,4.5122,-37.2561
1595879421,-0.9973,-0.0278,0.0844,-5.0610,4.6951,-45.4268
1595879421,-0.9983,-0.0595,0.0832,-4.9390,3.7195,-40.8537
1595879421,-0.9971,-0.0543,0.0828,-2.6829,1.8293,-23.5366
1595879421,-0.9955,-0.0189,0.0836,-0.2439,-0.1220,-1.5244
1595879421,-0.9963,0.0356,0.0927,1.7073,-1.7073,18.2927
1595879421,-0.9985,0.0864,0.0979,3.0488,-2.7439,30.3659
1595879421,-0.9933,0.1145,0.0990,3.1098,-2.8049,31.7683
1595879421,-0.9899,0.1217,0.1022,2.2561,-2.5000,24.0244
1595879421,-0.9879,0.1204,0.1017,0.9146,-1.5244,12.1951
1595879421,-0.9925,0.1096,0.0978,-0.3049,0.0000,-0.4878
1595879421,-0.9974,0.0714,0.0944,-1.4024,1.5244,-12.6829
1595879421,-0.9952,0.0245,0.0921,-2.5610,2.1951,-21.8293
1595879421,-0.9986,-0.0005,0.0865,-2.9878,2.0732,-23.5976
1595879421,-0.9994,-0.0081,0.0849,-2.1341,1.5244,-16.6463
1595879421,-0.9993,0.0081,0.0859,-0.8537,0.4878,-5.4268
1595879421,-0.9999,0.0369,0.0885,0.3049,-0.6098,5.7927
1595879421,-0.9955,0.0665,0.0927,1.1585,-1.2805,13.2927
1595879421,-0.9962,0.0871,0.0973,1.5244,-1.4634,15.0000
1595879421,-0.9911,0.0917,0.1003,0.9756,-1.0976,11.3415
1595879421,-0.9948,0.0837,0.0988,0.2439,-0.4268,4.7561
1595879421,-0.9952,0.0673,0.0969,-0.4878,0.1220,-2.0732
1595879421,-0.9940,0.0515,0.0955,-0.9756,0.6098,-7.0122
1595879421,-0.9968,0.0388,0.0924,-1.1585,0.7927,-8.5976
1595879421,-0.9963,0.0318,0.0885,-1.0366,0.6098,-7.1341
1595879421,-0.9985,0.0350,0.0925,-0.6707,0.3049,-3.5976
1595879421,-0.9949,0.0454,0.0915,-0.1829,-0.0610,0.5488
1595879421,-0.9944,0.0547,0.0936,0.1829,-0.4268,3.7805
1595879421,-0.9941,0.0635,0.0963,0.3049,-0.5488,5.1829
1595879421,-0.9957,0.0690,0.0975,0.3049,-0.4268,4.4512
1595879421,-0.9955,0.0662,0.0970,0.0610,-0.3049,2.1951
1595879421,-0.9957,0.0605,0.0934,-0.3049,-0.0610,-0.4878
1595879421,-0.9964,0.0529,0.0922,-0.5488,0.1829,-2.5000
1595879421,-0.9956,0.0463,0.0940,-0.6707,0.2439,-3.3537
1595879421,-0.9951,0.0468,0.0913,-0.6707,0.1829,-2.9268
1595879421,-0.9935,0.0470,0.0930,-0.4268,0.0610,-1.3415
1595879421,-0.9948,0.0524,0.0948,-0.2439,-0.1220,0.6707
1595879421,-0.9945,0.0599,0.0941,-0.0610,-0.3049,2.1951
1595879421,-0.9962,0.0616,0.0906,0.0610,-0.2439,2.5610
1595879421,-0.9952,0.0603,0.0897,-0.1220,-0.1829,1.5854
1595879421,-0.9944,0.0576,0.0893,-0.4268,0.0000,-0.0610
1595879421,-0.9944,0.0526,0.0897,-0.4878,0.0610,-1.5244
1595879421,-0.9957,0.0475,0.0909,-0.5488,0.1220,-2.1951
1595879421,-0.9956,0.0465,0.0952,-0.5488,0.1829,-1.8293
1595879421,-0.9944,0.0508,0.0959,-0.3659,0.0000,-0.6707
1595879421,-0.9957,0.0540,0.0967,-0.3049,-0.1220,0.9756
1595879421,-0.9973,0.0580,0.0975,-0.0610,-0.2439,2.0122
1595879421,-0.9962,0.0637,0.0952,-0.0610,-0.2439,2.1341
1595879421,-0.9971,0.0617,0.0924,-0.1829,-0.1829,1.0976
1595879421,-0.9968,0.0593,0.0921,-0.3659,0.0000,-0.5488
1595879421,-0.9967,0.0525,0.0892,-0.5488,0.1829,-2.0122
1595879421,-0.9947,0.0499,0.0893,-0.7317,0.1829,-2.6220
1595879421,-0.9935,0.0460,0.0936,-0.5488,0.1829,-1.9512
1595879421,-0.9956,0.0489,0.0950,-0.3049,0.1220,-0.5488
1595879421,-0.9941,0.0547,0.0959,-0.1829,-0.1220,1.0366
1595879421,-0.9949,0.0601,0.0942,-0.0610,-0.3049,2.2561
1595879421,-0.9960,0.0634,0.0948,-0.0610,-0.3049,2.5000
1595879421,-0.9949,0.0643,0.0944,-0.0610,-0.3049,1.6463
1595879421,-0.9977,0.0596,0.0933,-0.1829,0.0000,0.1829
1595879421,-0.9951,0.0539,0.0922,-0.4268,0.1829,-1.4634
1595879421,-0.9950,0.0495,0.0917,-0.5488,0.1829,-2.5610
1595879421,-0.9930,0.0463,0.0924,-0.5488,0.1829,-2.6220
1595879421,-0.9952,0.0470,0.0928,-0.4878,0.1220,-1.6463
1595879421,-0.9977,0.0511,0.0920,-0.3659,0.0000,0.0000
1595879421,-0.9960,0.0552,0.0952,-0.0610,-0.1220,1.6463
1595879421,-0.9957,0.0610,0.0969,0.1220,-0.3049,2.5610
1595879421,-0.9960,0.0653,0.0969,0.0000,-0.3049,2.3171
1595879421,-0.9955,0.0618,0.0942,-0.1829,-0.1220,1.0366
1595879421,-0.9948,0.0569,0.0928,-0.3049,0.0610,-0.5488
1595879421,-0.9957,0.0524,0.0947,-0.4268,0.1220,-1.8902
1595879421,-0.9963,0.0495,0.0947,-0.5488,0.1829,-2.3171
1595879421,-0.9961,0.0496,0.0911,-0.5488,0.2439,-1.7683
1595879421,-0.9941,0.0513,0.0897,-0.4268,0.0000,-0.6098
1595879421,-0.9946,0.0549,0.0906,-0.1829,-0.0610,0.6098
1595879421,-0.9964,0.0587,0.0913,-0.0610,-0.1829,1.2805
1595879421,-0.9958,0.0566,0.0958,-0.1220,-0.1829,1.3415
1595879421,-0.9951,0.0575,0.0977,-0.3049,-0.0610,0.6098
1595879421,-0.9944,0.0564,0.0985,-0.3049,-0.0610,-0.1829
1595879421,-0.9948,0.0530,0.0956,-0.3659,0.0000,-0.6707
1595879421,-0.9974,0.0527,0.0952,-0.3049,0.0000,-0.7317
1595879421,-0.9947,0.0554,0.0949,-0.3049,-0.0610,-0.2439
1595879421,-0.9935,0.0544,0.0936,-0.2439,-0.0610,0.1829
1595879421,-0.9941,0.0568,0.0915,-0.3049,-0.1220,0.2439
1595879421,-0.9960,0.0577,0.0921,-0.3659,0.0000,-0.0610
1595879421,-0.9954,0.0538,0.0917,-0.3049,0.0000,-0.4268
1595879422,-0.9964,0.0510,0.0911,-0.3659,0.0610,-0.7317
1595879422,-0.9962,0.0511,0.0920,-0.4268,0.0000,-0.6098
1595879422,-0.9945,0.0527,0.0955,-0.3049,-0.0610,-0.1220
1595879422,-0.9958,0.0560,0.0991,-0.2439,-0.0610,0.6098
1595879422,-0.9962,0.0574,0.0954,-0.1829,-0.1220,0.9146
1595879422,-0.9958,0.0576,0.0919,-0.3049,-0.1220,0.7927
1595879422,-0.9963,0.0574,0.0941,-0.2439,-0.1220,0.1829
1595879422,-0.9959,0.0549,0.0932,-0.3049,0.0000,-0.5488
1595879422,-0.9944,0.0523,0.0923,-0.4878,0.0610,-1.2195
1595879422,-0.9933,0.0508,0.0919,-0.4878,0.0610,-1.2805
1595879422,-0.9943,0.0518,0.0925,-0.3659,0.0610,-0.8537
1595879422,-0.9958,0.0520,0.0948,-0.2439,-0.1829,-0.1220
1595879422,-0.9968,0.0549,0.0975,-0.1829,-0.1829,0.7317
1595879422,-0.9950,0.0563,0.0939,-0.1829,-0.1220,1.1585
1595879422,-0.9960,0.0597,0.0947,-0.1829,-0.1220,1.0366
1595879422,-0.9938,0.0582,0.0959,-0.1829,-0.1220,0.4268
1595879422,-0.9937,0.0552,0.0922,-0.3049,-0.1220,-0.3659
1595879422,-0.9952,0.0530,0.0936,-0.3659,0.0610,-0.8537
1595879422,-0.9955,0.0530,0.0909,-0.4878,0.0610,-1.0366
1595879422,-0.9941,0.0516,0.0900,-0.4268,0.0000,-0.9146
1595879422,-0.9969,0.0528,0.0927,-0.3659,0.0610,-0.5488
1595879422,-0.9968,0.0544,0.0932,-0.3049,-0.0610,-0.0610
1595879422,-0.9952,0.0543,0.0943,-0.1220,-0.1220,0.6098
1595879422,-0.9962,0.0568,0.0959,-0.1829,-0.1829,0.9146
1595879422,-0.9948,0.0583,0.0938,-0.1829,-0.1220,0.7317
1595879422,-0.9940,0.0587,0.0944,-0.2439,-0.1220,0.3049
1595879422,-0.9930,0.0538,0.0930,-0.3659,0.0000,-0.3049
1595879422,-0.9976,0.0544,0.0912,-0.4268,0.0610,-0.7317
1595879422,-0.9973,0.0538,0.0935,-0.4268,0.0610,-0.7927
1595879422,-0.9942,0.0527,0.0944,-0.3049,0.0610,-0.6098
1595879422,-0.9931,0.0538,0.0939,-0.3049,0.0000,-0.3659
1595879422,-0.9942,0.0551,0.0933,-0.3659,-0.0610,0.1220
1595879422,-0.9946,0.0564,0.0953,-0.2439,-0.0610,0.4268
1595879422,-0.9945,0.0546,0.0966,-0.2439,-0.0610,0.4268
1595879422,-0.9954,0.0566,0.0969,-0.3049,-0.0610,0.2439
1595879422,-0.9973,0.0558,0.0938,-0.3659,-0.1220,-0.1220
1595879422,-0.9954,0.0547,0.0936,-0.4268,-0.0610,-0.4268
1595879422,-0.9954,0.0542,0.0934,-0.4268,0.0000,-0.3659
1595879422,-0.9968,0.0552,0.0927,-0.3659,-0.0610,-0.1220
1595879422,-0.9959,0.0557,0.0923,-0.2439,-0.0610,0.1220
1595879422,-0.9951,0.0590,0.0927,-0.3049,0.0000,0.1829
1595879422,-0.9940,0.0569,0.0939,-0.1829,0.0000,0.0610
1595879422,-0.9984,0.0541,0.0925,-0.3659,0.0000,-0.1220
1595879422,-0.9973,0.0529,0.0944,-0.3659,0.0000,-0.4268
1595879422,-0.9959,0.0530,0.0933,-0.3049,-0.0610,-0.5488
1595879422,-0.9964,0.0530,0.0944,-0.3049,-0.0610,-0.3049
1595879422,-0.9951,0.0527,0.0946,-0.3659,0.0000,-0.1220
1595879422,-0.9966,0.0547,0.0970,-0.2439,-0.0610,0.3049
1595879422,-0.9959,0.0583,0.0955,-0.2439,-0.0610,0.6098
1595879422,-0.9927,0.0565,0.0945,-0.1829,-0.1829,0.5488
1595879422,-0.9939,0.0573,0.0937,-0.1829,-0.0610,0.2439
1595879422,-0.9955,0.0560,0.0927,-0.3659,0.0000,-0.3049
1595879422,-0.9956,0.0552,0.0917,-0.4268,-0.0610,-0.7317
1595879422,-0.9966,0.0514,0.0932,-0.3659,0.0610,-0.9146
1595879422,-0.9980,0.0509,0.0925,-0.4268,0.0000,-0.8537
1595879422,-0.9965,0.0524,0.0935,-0.2439,-0.0610,-0.3659
1595879422,-0.9933,0.0547,0.0944,-0.2439,-0.1220,0.3049
1595879422,-0.9946,0.0574,0.0957,-0.2439,-0.1220,1.0366
1595879422,-0.9973,0.0626,0.0964,-0.1220,-0.2439,1.4634
1595879422,-0.9951,0.0604,0.0963,-0.1829,-0.1829,1.0366
1595879422,-0.9944,0.0557,0.0950,-0.2439,0.0000,-0.2439
1595879422,-0.9964,0.0544,0.0926,-0.3659,0.1220,-1.3415
1595879422,-0.9964,0.0505,0.0900,-0.4878,0.0610,-1.7073
1595879422,-0.9948,0.0498,0.0930,-0.4878,0.1220,-1.3415
1595879422,-0.9933,0.0494,0.0931,-0.2439,0.0610,-0.2439
1595879422,-0.9938,0.0555,0.0938,-0.2439,-0.0610,0.8537
1595879422,-0.9938,0.0588,0.0961,-0.2439,-0.2439,1.4634
1595879422,-0.9940,0.0587,0.0948,-0.1220,-0.1829,1.2195
1595879422,-0.9973,0.0579,0.0941,-0.2439,-0.1220,0.3659
1595879422,-0.9974,0.0554,0.0936,-0.3049,0.0000,-0.6098
1595879422,-0.9940,0.0522,0.0926,-0.4268,0.1220,-1.3415
1595879422,-0.9966,0.0515,0.0942,-0.4268,0.1829,-1.3415
1595879422,-0.9966,0.0522,0.0931,-0.3659,0.0610,-0.5488
1595879422,-0.9954,0.0532,0.0917,-0.1829,-0.1220,0.3049
1595879422,-0.9948,0.0568,0.0947,-0.1220,-0.1220,0.8537
1595879422,-0.9949,0.0597,0.0939,-0.2439,-0.0610,0.8537
1595879422,-0.9969,0.0570,0.0899,-0.3049,-0.0610,0.1829
1595879422,-0.9972,0.0528,0.0906,-0.3049,0.0000,-0.5488
1595879422,-0.9945,0.0518,0.0941,-0.3049,-0.0610,-0.8537
1595879422,-0.9962,0.0522,0.0959,-0.4268,-0.0610,-0.4878
1595879422,-0.9958,0.0550,0.0965,-0.3049,-0.0610,-0.0610
1595879422,-0.9933,0.0564,0.0948,-0.3049,-0.0610,0.4268
1595879422,-0.9935,0.0571,0.0931,-0.1829,-0.1220,0.7317
1595879422,-0.9969,0.0581,0.0944,-0.1829,-0.1220,0.6098
1595879422,-0.9970,0.0557,0.0963,-0.3049,-0.0610,0.0000
1595879422,-0.9951,0.0543,0.0923,-0.3659,0.0610,-0.6098
1595879422,-0.9943,0.0546,0.0884,-0.4268,0.0000,-1.0366
1595879422,-0.9963,0.0514,0.0931,-0.3049,0.1220,-0.9756
1595879422,-0.9952,0.0524,0.0967,-0.3659,0.0000,-0.4268
1595879422,-0.9973,0.0544,0.0940,-0.3049,-0.1220,0.3049
1595879422,-0.9946,0.0553,0.0933,-0.1220,-0.1220,0.7927
1595879422,-0.9949,0.0571,0.0959,-0.1829,-0.1220,0.8537
1595879422,-0.9946,0.0567,0.0930,-0.3049,-0.1220,0.3659
1595879422,-0.9962,0.0565,0.0908,-0.3049,0.0000,-0.0610
1595879422,-0.9985,0.0535,0.0917,-0.3049,0.0000,-0.4878
1595879422,-0.9967,0.0526,0.0918,-0.3049,0.0000,-0.6707
1595879422,-0.9941,0.0530,0.0937,-0.3049,0.0000,-0.6098
1595879422,-0.9949,0.0549,0.0941,-0.3659,0.0000,-0.4268
1595879422,-0.9974,0.0547,0.0951,-0.3659,0.0000,-0.1220
1595879422,-0.9953,0.0562,0.0950,-0.2439,-0.0610,0.1829
1595879422,-0.9964,0.0582,0.0913,-0.2439,-0.1829,0.5488
1595879422,-0.9968,0.0586,0.0916,-0.1829,-0.1220,0.6707
1595879423,-0.9945,0.0575,0.0947,-0.2439,-0.0610,0.2439
1595879423,-0.9963,0.0556,0.0951,-0.4268,0.0610,-0.3049
1595879423,-0.9967,0.0524,0.0941,-0.3659,0.0000,-0.7927
1595879423,-0.9940,0.0538,0.0945,-0.3049,0.0000,-0.8537
1595879423,-0.9983,0.0532,0.0939,-0.4268,0.0000,-0.4268
1595879423,-0.9957,0.0561,0.0939,-0.2439,-0.0610,0.3049
1595879423,-0.9963,0.0571,0.0942,-0.1829,-0.1829,1.0366
1595879423,-0.9952,0.0578,0.0945,-0.2439,-0.0610,0.8537
1595879423,-0.9935,0.0574,0.0916,-0.1220,0.0000,0.1220
1595879423,-0.9963,0.0547,0.0933,-0.4268,0.0000,-0.7927
1595879423,-0.9940,0.0503,0.0949,-0.4878,0.0610,-1.4024
1595879423,-0.9964,0.0493,0.0956,-0.4878,0.0610,-1.2195
1595879423,-0.9933,0.0518,0.0962,-0.3049,-0.0610,-0.3049
1595879423,-0.9966,0.0564,0.0956,-0.2439,-0.1829,0.7927
1595879423,-0.9955,0.0604,0.0951,-0.0610,-0.1829,1.4634
1595879423,-0.9969,0.0596,0.0933,-0.1220,-0.1220,1.2805
1595879423,-0.9949,0.0600,0.0924,-0.1829,-0.0610,0.4268
1595879423,-0.9960,0.0554,0.0915,-0.3049,0.0000,-0.7317
1595879423,-0.9960,0.0516,0.0934,-0.4268,0.0610,-1.5854
1595879423,-0.9959,0.0500,0.0958,-0.4268,0.1220,-1.6463
1595879423,-0.9968,0.0507,0.0908,-0.3659,0.1220,-0.9756
1595879423,-0.9971,0.0527,0.0921,-0.2439,-0.0610,0.0610
1595879423,-0.9963,0.0570,0.0945,-0.1829,-0.1829,1.1585
1595879423,-0.9957,0.0593,0.0942,-0.1829,-0.1220,1.5244
1595879423,-0.9957,0.0594,0.0946,-0.1829,-0.1829,1.1585
1595879423,-0.9949,0.0602,0.0967,-0.2439,-0.1220,0.3659
1595879423,-0.9941,0.0576,0.0945,-0.3049,0.0610,-0.6707
1595879423,-0.9933,0.0515,0.0926,-0.4268,0.1220,-1.4634
1595879423,-0.9944,0.0493,0.0918,-0.4268,0.0610,-1.6463
1595879423,-0.9946,0.0487,0.0922,-0.3049,0.0610,-1.0366
1595879423,-0.9946,0.0507,0.0916,-0.3049,0.0000,-0.0610
1595879423,-0.9954,0.0571,0.0901,-0.1829,-0.0610,0.9756
1595879423,-0.9977,0.0594,0.0942,-0.1220,-0.1220,1.4634
1595879423,-0.9949,0.0586,0.0961,-0.1829,-0.1829,1.1585
1595879423,-0.9967,0.0570,0.0959,-0.2439,-0.0610,0.2439
1595879423,-0.9929,0.0529,0.0931,-0.3659,0.0000,-0.7317
1595879423,-0.9947,0.0516,0.0930,-0.4268,0.0610,-1.2805
1595879423,-0.9963,0.0527,0.0951,-0.4268,0.0610,-1.0976
1595879423,-0.9945,0.0540,0.0964,-0.3659,0.0000,-0.4268
1595879423,-0.9967,0.0545,0.0919,-0.3049,-0.1220,0.4878
1595879423,-0.9958,0.0575,0.0912,-0.1829,-0.1829,0.9146
1595879423,-0.9950,0.0585,0.0946,-0.1829,-0.1829,0.9146
1595879423,-0.9935,0.0577,0.0942,-0.1829,-0.1220,0.1829
1595879423,-0.9932,0.0547,0.0941,-0.4268,0.0610,-0.6098
1595879423,-0.9973,0.0501,0.0938,-0.4878,0.1829,-1.2195
1595879423,-0.9947,0.0505,0.0950,-0.4268,0.1220,-1.2195
1595879423,-0.9970,0.0514,0.0941,-0.3659,0.0000,-0.4878
1595879423,-0.9960,0.0558,0.0944,-0.1829,-0.1829,0.4878
1595879423,-0.9932,0.0595,0.0930,-0.2439,-0.1829,1.2805
1595879423,-0.9946,0.0610,0.0932,-0.1220,-0.1220,1.4024
1595879423,-0.9945,0.0601,0.0927,-0.0610,0.0000,0.5488
1595879423,-0.9921,0.0568,0.0933,-0.3049,0.0610,-0.6098
1595879423,-0.9955,0.0515,0.0903,-0.5488,0.1220,-1.5854
1595879423,-0.9940,0.0488,0.0900,-0.5488,0.1220,-1.8902
1595879423,-0.9977,0.0491,0.0933,-0.5488,0.0610,-1.2805
1595879423,-0.9956,0.0519,0.0938,-0.3049,-0.1220,-0.1220
1595879423,-0.9971,0.0580,0.0926,-0.1220,-0.1220,1.0976
1595879423,-0.9965,0.0607,0.0901,0.0000,-0.2439,1.6463
1595879423,-0.9978,0.0603,0.0961,-0.1829,-0.2439,1.4634
1595879423,-0.9962,0.0615,0.0965,-0.2439,-0.0610,0.6098
1595879423,-0.9949,0.0574,0.0946,-0.2439,0.0610,-0.4268
1595879423,-0.9947,0.0537,0.0948,-0.3659,0.0000,-1.2195
1595879423,-0.9935,0.0517,0.0902,-0.4878,0.0000,-1.5854
1595879423,-0.9945,0.0522,0.0912,-0.3659,0.0610,-1.0976
1595879423,-0.9950,0.0515,0.0917,-0.3659,0.0610,-0.3659
1595879423,-0.9957,0.0530,0.0960,-0.3049,-0.0610,0.2439
1595879423,-0.9955,0.0551,0.0957,-0.1829,-0.1220,0.4878
1595879423,-0.9969,0.0558,0.0947,-0.1220,-0.1220,0.7317
1595879423,-0.9935,0.0612,0.0945,-0.2439,-0.1829,0.9146
1595879423,-0.9945,0.0586,0.0958,-0.2439,-0.1220,0.7317
1595879423,-0.9908,0.0589,0.0965,-0.3049,-0.0610,0.0000
1595879423,-0.9961,0.0541,0.0931,-0.4878,0.0610,-0.8537
1595879423,-0.9949,0.0489,0.0934,-0.4878,0.0610,-1.5244
1595879423,-0.9948,0.0475,0.0923,-0.4878,0.1220,-1.5244
1595879423,-0.9982,0.0497,0.0956,-0.3049,0.0610,-0.5488
1595879423,-0.9993,0.0563,0.0955,-0.1220,-0.1220,0.8537
1595879423,-0.9967,0.0604,0.0952,-0.1829,-0.2439,1.7073
1595879423,-0.9937,0.0588,0.0947,-0.0610,-0.1829,1.5854
1595879423,-0.9947,0.0604,0.0934,-0.2439,-0.1220,0.6098
1595879423,-0.9944,0.0562,0.0925,-0.4268,0.0610,-0.6098
1595879423,-0.9958,0.0500,0.0942,-0.5488,0.1220,-1.6463
1595879423,-0.9982,0.0478,0.0932,-0.4878,0.1220,-1.8902
1595879423,-0.9969,0.0491,0.0916,-0.4268,0.0610,-1.1585
1595879423,-0.9945,0.0511,0.0968,-0.2439,-0.0610,-0.0610
1595879423,-0.9924,0.0551,0.0932,-0.1220,-0.1220,1.2195
1595879423,-0.9957,0.0588,0.0904,-0.0610,-0.1829,1.7683
1595879423,-0.9948,0.0604,0.0914,-0.1829,-0.1829,1.2195
1595879423,-0.9960,0.0565,0.0906,-0.2439,0.0000,-0.1829
1595879423,-0.9976,0.0518,0.0919,-0.3659,0.1829,-1.4024
1595879423,-0.9952,0.0486,0.0913,-0.4268,0.1829,-1.7683
1595879423,-0.9969,0.0491,0.0930,-0.4268,0.0610,-1.1585
1595879423,-0.9973,0.0521,0.0934,-0.2439,-0.0610,0.1220
1595879423,-0.9958,0.0574,0.0948,-0.0610,-0.1829,1.2805
1595879423,-0.9950,0.0610,0.0956,-0.1220,-0.1829,1.7073
1595879423,-0.9930,0.0619,0.0909,-0.1220,-0.1220,1.2195
1595879423,-0.9956,0.0581,0.0914,-0.3049,0.0000,0.0000
1595879423,-0.9954,0.0540,0.0936,-0.4878,0.0610,-1.2195
1595879423,-0.9964,0.0494,0.0930,-0.5488,0.1829,-2.0122
1595879423,-0.9951,0.0472,0.0930,-0.4878,0.1220,-1.8902
1595879423,-0.9954,0.0493,0.0923,-0.3049,0.0610,-0.7927
1595879423,-0.9944,0.0530,0.0938,-0.1220,0.0000,0.6098
1595879423,-0.9949,0.0597,0.0955,-0.1220,-0.3049,1.8293
1595879424,-0.9962,0.0641,0.0969,-0.0610,-0.3049,2.1951
1595879424,-0.9959,0.0618,0.0951,-0.1220,-0.1220,1.3415
1595879424,-0.9957,0.0574,0.0914,-0.1829,0.0000,-0.3659
1595879424,-0.9955,0.0547,0.0901,-0.4268,0.0610,-1.7073
1595879424,-0.9938,0.0491,0.0907,-0.5488,0.1220,-2.1341
1595879424,-0.9961,0.0475,0.0915,-0.4878,0.1220,-1.4634
1595879424,-0.9951,0.0495,0.0942,-0.3659,0.0000,-0.4268
1595879424,-0.9946,0.0540,0.0925,-0.1829,-0.1220,0.7317
1595879424,-0.9957,0.0604,0.0898,-0.1220,-0.1829,1.4634
1595879424,-0.9938,0.0599,0.0895,-0.0610,-0.1829,1.1585
1595879424,-0.9971,0.0566,0.0926,-0.1829,-0.1220,0.3049
1595879424,-0.9960,0.0521,0.0975,-0.3049,0.0610,-0.7927
1595879424,-0.9965,0.0508,0.0961,-0.3659,0.0610,-1.4634
1595879424,-0.9966,0.0499,0.0955,-0.4268,0.0610,-1.0976
1595879424,-0.9958,0.0544,0.0938,-0.2439,-0.0610,0.3049
1595879424,-0.9985,0.0604,0.0945,-0.1220,-0.1829,1.4634
1595879424,-0.9930,0.0622,0.0939,-0.1220,-0.2439,1.5244
1595879424,-0.9975,0.0580,0.0909,-0.2439,-0.1220,0.2439
1595879424,-0.9919,0.0516,0.0875,-0.4878,0.0610,-1.5244
1595879424,-0.9953,0.0444,0.0925,-0.6707,0.1220,-2.6220
1595879424,-0.9948,0.0435,0.0937,-0.6098,0.0610,-2.1951
1595879424,-0.9968,0.0487,0.0958,-0.4268,0.0000,-0.0610
1595879424,-0.9954,0.0589,0.0970,0.0000,-0.3049,2.0732
1595879424,-0.9931,0.0651,0.0982,0.1829,-0.3659,3.1098
1595879424,-0.9952,0.0662,0.0928,0.0000,-0.3049,2.5000
1595879424,-0.9955,0.0624,0.0936,-0.2439,-0.0610,0.3659
1595879424,-0.9987,0.0515,0.0936,-0.5488,0.1829,-2.2561
1595879424,-0.9949,0.0428,0.0928,-0.7317,0.3049,-3.6585
1595879424,-0.9963,0.0416,0.0903,-0.6707,0.1829,-3.2317
1595879424,-0.9926,0.0446,0.0914,-0.3659,0.0000,-1.0366
1595879424,-0.9954,0.0552,0.0933,-0.1220,-0.2439,1.7073
1595879424,-0.9945,0.0643,0.0930,0.1220,-0.4268,3.4756
1595879424,-0.9963,0.0671,0.0957,0.1220,-0.3049,3.3537
1595879424,-0.9935,0.0624,0.0956,-0.1829,-0.1829,1.2805
1595879424,-0.9949,0.0554,0.0920,-0.4268,0.0610,-1.4024
1595879424,-0.9954,0.0479,0.0904,-0.6707,0.3049,-2.9878
1595879424,-0.9941,0.0444,0.0934,-0.5488,0.2439,-2.9268
1595879424,-0.9941,0.0462,0.0933,-0.4268,0.1220,-1.4634
1595879424,-0.9937,0.0535,0.0934,-0.1829,-0.1829,0.6098
1595879424,-0.9963,0.0598,0.0902,-0.0610,-0.1829,2.1341
1595879424,-0.9946,0.0617,0.0901,0.0000,-0.1220,2.3171
1595879424,-0.9958,0.0624,0.0906,-0.0610,-0.1829,1.2195
1595879424,-0.9943,0.0554,0.0912,-0.3049,0.0610,-0.4878
1595879424,-0.9946,0.0501,0.0931,-0.6098,0.2439,-2.1341
1595879424,-0.9946,0.0462,0.0939,-0.6098,0.2439,-2.7439
1595879424,-0.9950,0.0470,0.0944,-0.4878,0.1829,-1.8293
1595879424,-0.9967,0.0511,0.0956,-0.2439,-0.1220,0.1829
1595879424,-0.9973,0.0588,0.0967,-0.0610,-0.2439,2.1951
1595879424,-0.9934,0.0667,0.0970,0.0000,-0.3049,2.9878
1595879424,-0.9938,0.0670,0.0939,0.0610,-0.2439,2.1951
1595879424,-0.9976,0.0613,0.0902,-0.2439,-0.0610,0.1829
1595879424,-0.9941,0.0544,0.0909,-0.5488,0.1220,-2.0732
1595879424,-0.9969,0.0456,0.0913,-0.6707,0.2439,-3.2927
1595879424,-0.9973,0.0416,0.0922,-0.5488,0.3049,-3.0488
1595879424,-0.9941,0.0461,0.0955,-0.3659,0.0000,-1.4024
1595879424,-0.9954,0.0529,0.0958,-0.2439,-0.1829,0.9146
1595879424,-0.9959,0.0605,0.0948,-0.0610,-0.3049,2.6829
1595879424,-0.9954,0.0656,0.0960,0.0610,-0.3659,3.2317
1595879424,-0.9937,0.0651,0.0933,-0.0610,-0.3049,2.1341
1595879424,-0.9934,0.0624,0.0915,-0.2439,0.0000,0.1220
1595879424,-0.9952,0.0516,0.0906,-0.4878,0.1829,-1.9512
1595879424,-0.9952,0.0468,0.0923,-0.6098,0.2439,-3.1707
1595879424,-0.9965,0.0446,0.0925,-0.6707,0.1829,-2.8659
1595879424,-0.9944,0.0461,0.0898,-0.4268,0.0610,-1.2805
1595879424,-0.9937,0.0538,0.0923,-0.1220,-0.1220,0.6707
1595879424,-0.9951,0.0593,0.0950,-0.1220,-0.2439,2.1341
1595879424,-0.9949,0.0630,0.0967,-0.1220,-0.2439,2.3780
1595879424,-0.9954,0.0607,0.0947,-0.1829,-0.1829,1.4634
1595879424,-0.9951,0.0567,0.0974,-0.2439,-0.0610,-0.1220
1595879424,-0.9940,0.0521,0.0946,-0.4268,0.0610,-1.5244
1595879424,-0.9952,0.0488,0.0925,-0.4878,0.1829,-2.0122
1595879424,-0.9955,0.0482,0.0949,-0.5488,0.1220,-1.5854
1595879424,-0.9954,0.0527,0.0954,-0.3049,0.0000,-0.4878
1595879424,-0.9966,0.0561,0.0924,-0.1829,-0.1220,0.7927
1595879424,-0.9956,0.0589,0.0928,-0.1829,-0.2439,1.4024
1595879424,-0.9944,0.0580,0.0942,-0.1220,-0.1829,1.1585
1595879424,-0.9954,0.0583,0.0939,-0.2439,-0.1829,0.3049
1595879424,-0.9963,0.0560,0.0945,-0.3049,0.0000,-0.6707
1595879424,-0.9963,0.0527,0.0944,-0.4268,0.1220,-1.2195
1595879424,-0.9949,0.0519,0.0952,-0.4268,0.1220,-1.0366
1595879424,-0.9955,0.0522,0.0953,-0.4268,-0.0610,-0.3049
1595879424,-0.9936,0.0551,0.0931,-0.2439,-0.1829,0.4878
1595879424,-0.9972,0.0579,0.0949,-0.1829,-0.1829,0.8537
1595879424,-0.9967,0.0572,0.0928,-0.2439,-0.1220,0.7317
1595879424,-0.9957,0.0577,0.0918,-0.1829,-0.0610,0.0610
1595879424,-0.9952,0.0542,0.0919,-0.2439,0.0610,-0.6098
1595879424,-0.9946,0.0511,0.0942,-0.4878,0.0610,-1.1585
1595879424,-0.9960,0.0508,0.0935,-0.4268,0.0610,-1.2195
1595879424,-0.9973,0.0519,0.0960,-0.3049,0.0000,-0.4878
1595879424,-0.9953,0.0558,0.0952,-0.1829,-0.0610,0.3659
1595879424,-0.9959,0.0579,0.0949,-0.1829,-0.1829,1.0366
1595879424,-0.9954,0.0566,0.0947,-0.1829,-0.1829,1.2195
1595879424,-0.9941,0.0574,0.0935,-0.3049,-0.1220,0.7927
1595879424,-0.9954,0.0562,0.0944,-0.3049,-0.0610,0.0000
1595879424,-0.9963,0.0547,0.0933,-0.3659,0.1220,-0.9756
1595879424,-0.9954,0.0516,0.0941,-0.4878,0.1829,-1.4634
1595879424,-0.9961,0.0488,0.0931,-0.4268,0.0610,-1.3415
1595879424,-0.9954,0.0494,0.0927,-0.3049,0.0000,-0.6098
1595879424,-0.9954,0.0535,0.0912,-0.3659,-0.1220,0.4268
1595879424,-0.9954,0.0568,0.0934,-0.1829,-0.0610,1.0976
1595879424,-0.9938,0.0601,0.0952,-0.1220,-0.1220,1.2195
1595879425,-0.9949,0.0616,0.0927,-0.1220,-0.1829,0.9756
1595879425,-0.9956,0.0588,0.0921,-0.1829,-0.0610,0.1829
1595879425,-0.9941,0.0541,0.0933,-0.3659,0.1220,-0.7317
1595879425,-0.9946,0.0511,0.0941,-0.5488,0.1220,-1.2805
1595879425,-0.9962,0.0487,0.0920,-0.4878,0.0610,-1.2805
1595879425,-0.9961,0.0497,0.0933,-0.3659,0.1220,-0.7927
1595879425,-0.9940,0.0549,0.0934,-0.2439,0.0000,0.1829
1595879425,-0.9962,0.0574,0.0939,-0.1220,-0.1829,0.9146
1595879425,-0.9952,0.0587,0.0940,-0.1220,-0.1829,1.0976
1595879425,-0.9940,0.0583,0.0934,-0.1220,-0.1220,0.6707
1595879425,-0.9965,0.0557,0.0944,-0.3049,-0.0610,0.0000
1595879425,-0.9955,0.0538,0.0938,-0.3659,0.0610,-0.6098
1595879425,-0.9981,0.0529,0.0914,-0.3049,0.0610,-0.8537
1595879425,-0.9954,0.0530,0.0954,-0.3049,0.0000,-0.6707
1595879425,-0.9955,0.0523,0.0958,-0.2439,0.0000,-0.2439
1595879425,-0.9954,0.0554,0.0945,-0.2439,-0.0610,0.2439
1595879425,-0.9943,0.0566,0.0920,-0.2439,-0.0610,0.3659
1595879425,-0.9948,0.0568,0.0934,-0.2439,-0.0610,0.3049
1595879425,-0.9949,0.0558,0.0925,-0.2439,0.0000,0.0610
1595879425,-0.9951,0.0522,0.0943,-0.3049,0.0000,-0.3049
1595879425,-0.9955,0.0562,0.0933,-0.3659,0.0610,-0.5488
1595879425,-0.9954,0.0531,0.0940,-0.3659,-0.0610,-0.4268
1595879425,-0.9967,0.0546,0.0924,-0.3049,-0.0610,0.0000
1595879425,-0.9946,0.0566,0.0947,-0.3049,-0.0610,0.3049
1595879425,-0.9962,0.0558,0.0956,-0.2439,-0.1829,0.3659
1595879425,-0.9951,0.0572,0.0933,-0.2439,-0.0610,0.2439
1595879425,-0.9952,0.0540,0.0911,-0.3049,0.0000,-0.1220
1595879425,-0.9966,0.0541,0.0927,-0.3049,-0.0610,-0.4878
1595879425,-0.9952,0.0524,0.0919,-0.4268,0.0000,-0.6098
1595879425,-0.9964,0.0531,0.0902,-0.4268,0.0000,-0.4268
1595879425,-0.9954,0.0533,0.0917,-0.3049,-0.0610,-0.0610
1595879425,-0.9955,0.0541,0.0941,-0.3049,-0.1220,0.3049
1595879425,-0.9942,0.0563,0.0936,-0.3049,-0.0610,0.4878
1595879425,-0.9957,0.0591,0.0948,-0.3049,-0.0610,0.4878
1595879425,-0.9943,0.0573,0.0935,-0.2439,-0.0610,0.0610
1595879425,-0.9962,0.0528,0.0934,-0.3049,0.0000,-0.3659
1595879425,-0.9960,0.0529,0.0920,-0.3049,0.0000,-0.7317
1595879425,-0.9939,0.0530,0.0936,-0.3049,0.0000,-0.7317
1595879425,-0.9960,0.0519,0.0911,-0.3049,0.0610,-0.5488
1595879425,-0.9957,0.0530,0.0916,-0.3659,-0.1220,-0.0610
1595879425,-0.9916,0.0557,0.0948,-0.3049,-0.0610,0.3049
1595879425,-0.9943,0.0571,0.0948,-0.1829,-0.0610,0.4878
1595879425,-0.9951,0.0570,0.0941,-0.2439,-0.1220,0.4878
1595879425,-0.9951,0.0562,0.0928,-0.3049,-0.1220,0.3049
1595879425,-0.9965,0.0554,0.0956,-0.3049,0.0000,-0.1220
1595879425,-0.9951,0.0527,0.0933,-0.3659,0.0000,-0.5488
1595879425,-0.9946,0.0542,0.0927,-0.3659,0.0610,-0.6098
1595879425,-0.9752,0.3502,0.1306,-0.3049,0.0000,-0.4268
1595879425,-0.9655,0.6791,0.2183,-2.1341,0.0610,-0.1829
1595879425,-0.9665,0.8728,0.1793,-32.9268,-2.8049,34.1463
1595879425,-0.9467,0.7662,0.0547,-52.6220,-4.7561,71.6463
1595879425,-1.0050,0.2825,0.0328,-93.7195,4.5732,10.0000
1595879425,-1.0022,-0.2672,-0.0654,-125.2439,14.4512,-90.3049
1595879425,-0.9177,-1.3770,-0.2673,-123.4756,17.0122,-162.9268
1595879425,-1.1205,-0.4796,-0.1620,-107.2561,-1.5244,-86.0366
1595879425,-1.3009,-0.4182,-0.0087,-5.7927,-14.3902,166.6463
1595879425,-1.4273,-0.1391,-0.0559,-0.4268,-42.8049,367.9878
1595879425,-1.4694,0.4321,0.0433,6.2195,-66.2195,438.9634
1595879425,-1.4225,0.6093,0.2035,13.6585,-75.9146,437.9268
1595879425,-1.3654,0.7261,0.3204,-3.0488,-77.9268,347.0732
1595879425,-1.4240,0.6763,0.3254,-16.5244,-88.7195,298.8415
1595879425,-1.4337,0.7579,0.3535,-23.1098,-99.5122,278.0488
1595879425,-1.3519,1.0401,0.3559,-27.2561,-115.3049,270.1829
1595879425,-1.4142,0.8484,0.3668,-30.3659,-132.3781,255.0610
1595879425,-1.5342,0.8030,0.3824,-41.7073,-147.9878,241.5854
1595879425,-1.4261,0.7238,0.4017,-53.6585,-167.6219,240.9146
1595879425,-1.1927,0.5660,0.4365,-60.7317,-190.8537,198.4756
1595879425,-1.4324,0.2430,0.3426,-58.4146,-221.4634,137.5000
1595879425,-1.6310,-0.0659,0.2401,-45.1829,-259.5122,82.3171
1595879425,-1.4683,-0.2249,0.1183,-14.5732,-310.7317,53.1707
1595879425,-1.4693,-0.1203,0.0556,26.1585,-371.7073,49.6951
1595879425,-1.4747,0.2017,-0.0221,68.6585,-431.5244,59.5732
1595879425,-1.0716,0.6346,-0.0474,95.5488,-499.6951,82.1341
1595879425,-0.9108,0.9671,-0.1419,96.5244,-560.2439,116.4024
1595879425,-0.9367,1.1456,-0.2584,64.9390,-605.6097,148.7805
1595879425,-1.0546,1.1725,-0.4435,12.2561,-639.6342,127.9268
1595879425,-1.3167,1.2581,-0.5054,-44.4512,-669.3293,83.9024
1595879425,-1.1459,0.8608,-0.3579,-93.6585,-697.8049,-8.9024
1595879425,-0.3377,0.0067,0.0311,-126.3415,-733.5976,-130.3659
1595879425,-0.2438,-0.2007,0.3873,-78.3537,-757.9268,-225.3659
1595879425,-0.9987,-0.2924,0.5547,-2.9878,-755.5488,-317.2561
1595879425,-1.1539,0.2414,0.5292,62.7439,-750.6708,-314.2073
1595879425,-0.7737,0.6066,0.4374,106.7683,-777.0122,-263.6585
1595879425,-0.5977,0.0264,0.0222,132.9878,-789.6951,-404.5732
1595879425,-1.1641,-0.2321,-0.3773,228.5366,-750.7927,-608.4756
1595879426,-0.7681,-0.2293,-0.3084,338.7195,-724.8781,-562.1342
1595879426,-0.0615,0.7826,-0.2374,404.4512,-734.6342,-445.9146
1595879426,0.2988,0.6534,-0.3177,553.9025,-642.9878,-731.7073
1595879426,0.2995,-0.2298,-0.1862,671.6464,-472.2561,-1126.7074
1595879426,0.2852,0.4037,-0.5259,599.0244,-315.5488,-881.7073
1595879426,-0.1785,1.7975,-0.4913,645.4878,-389.7561,336.0976
1595879426,-0.0338,0.9801,-0.3931,556.5854,-490.7317,793.8415
1595879426,0.3773,1.3522,-0.4855,421.0976,-463.7195,321.4024
1595879426,-0.2269,1.7234,-0.8429,367.1342,-400.6098,71.5854
1595879426,-0.4805,1.1914,-0.9701,321.1585,-320.6707,-3.7805
1595879426,-0.2350,0.8540,-0.7443,240.7317,-292.3171,-96.0976
1595879426,-0.4428,1.0185,-0.7840,185.6098,-286.6464,-127.5610
1595879426,-0.8278,1.3633,-0.3871,159.1463,-266.2195,-111.2195
1595879426,0.7706,1.0371,-0.7330,102.0122,-225.5488,-272.0122
1595879426,-0.1122,0.4441,-0.9384,60.9146,-148.1098,-311.2195
1595879426,-0.6833,0.7315,-0.5917,45.1220,-80.3049,-101.0976
1595879426,-0.1746,1.2937,-0.3025,12.1341,-55.9756,8.1098
1595879426,0.2614,0.5012,-0.2433,-31.0366,-72.9878,178.4146
1595879426,0.0795,0.3093,-0.2809,-68.1098,-73.4756,208.4146
1595879426,-0.0234,0.7208,-0.3864,-88.2927,-63.1707,273.1098
1595879426,0.0195,0.9313,-0.5463,-99.2683,-57.0732,297.7439
1595879426,0.0964,0.7468,-0.7712,-117.9878,-49.3902,228.6585
