time,ax,ay,az,gx,gy,gz
1595878848,0.1700,-0.8979,0.2999,-0.6707,0.6707,1.1585
1595878848,0.1739,-0.9059,0.3024,-0.6707,0.9756,1.3415
1595878848,0.1710,-0.9061,0.3012,-0.6098,1.0366,1.4024
1595878848,0.1726,-0.9052,0.3023,-0.6707,1.0366,1.2805
1595878848,0.1708,-0.9058,0.3013,-0.7927,0.8537,1.0976
1595878848,0.1699,-0.9068,0.3021,-0.9756,0.3659,0.7927
1595878848,0.1731,-0.9077,0.3038,-0.7927,0.0610,0.6707
1595878848,0.1740,-0.9066,0.3045,-0.6098,-0.1220,0.4878
1595878848,0.1749,-0.9061,0.3030,-0.6707,-0.1829,0.3659
1595878848,0.1732,-0.9061,0.3066,-0.6098,-0.3049,0.2439
1595878848,0.1716,-0.9059,0.3076,-0.4878,-0.1220,0.2439
1595878848,0.1708,-0.9044,0.3081,-0.4878,-0.1220,0.1220
1595878848,0.1716,-0.9052,0.3072,-0.3659,-0.2439,0.2439
1595878848,0.1703,-0.9040,0.3058,-0.3049,-0.3049,0.3659
1595878848,0.1694,-0.9010,0.3079,-0.2439,-0.4268,0.2439
1595878848,0.1703,-0.9008,0.3094,-0.1220,-0.4268,0.2439
1595878848,0.1714,-0.9004,0.3061,-0.2439,-0.6098,0.3049
1595878848,0.1708,-0.8975,0.3067,-0.1829,-0.6098,0.3049
1595878848,0.1707,-0.8992,0.3051,-0.1829,-0.4268,0.2439
1595878848,0.1708,-0.9011,0.3025,-0.1220,-0.4878,0.2439
1595878848,0.1738,-0.8998,0.3007,0.0610,-0.4878,0.2439
1595878848,0.1724,-0.9022,0.3029,0.1220,-0.3049,0.4268
1595878848,0.1751,-0.9042,0.3039,0.1829,0.1220,0.5488
1595878848,0.1747,-0.9050,0.3042,0.1220,0.3049,0.4878
1595878848,0.1752,-0.9041,0.3020,0.2439,0.2439,0.3659
1595878848,0.1733,-0.9018,0.2999,0.1220,0.1829,0.4878
1595878848,0.1714,-0.9022,0.2975,0.0000,0.0610,0.3659
1595878848,0.1738,-0.9055,0.2947,-0.0610,0.0000,0.2439
1595878848,0.1787,-0.9072,0.2948,0.0000,-0.2439,0.3049
1595878848,0.1783,-0.9057,0.2970,-0.1220,-0.4268,0.1829
1595878848,0.1787,-0.9061,0.2961,-0.1220,-0.3049,0.1829
1595878848,0.1780,-0.9038,0.2994,-0.3049,-0.0610,0.0610
1595878848,0.1757,-0.9011,0.2992,-0.4878,0.1220,-0.1829
1595878848,0.1748,-0.8985,0.2972,-0.7317,0.1220,-0.3659
1595878848,0.1748,-0.8979,0.2960,-0.7317,0.0000,-0.6707
1595878848,0.1709,-0.9018,0.2975,-0.6098,-0.1829,-0.9146
1595878848,0.1716,-0.9050,0.2947,-0.6707,-0.3049,-1.0976
1595878848,0.1736,-0.9047,0.2968,-0.7317,-0.4268,-1.0366
1595878848,0.1743,-0.9050,0.2988,-0.6098,-0.4878,-0.9146
1595878848,0.1747,-0.9047,0.3007,-0.6098,-0.5488,-0.6707
1595878848,0.1726,-0.9059,0.3038,-0.6707,-0.4268,-0.6098
1595878848,0.1725,-0.9070,0.3043,-0.6707,-0.0610,-0.5488
1595878848,0.1688,-0.9058,0.3002,-0.6707,0.1829,-0.4878
1595878848,0.1687,-0.9034,0.3015,-0.6098,0.0610,-0.6098
1595878848,0.1690,-0.9047,0.3005,-0.6098,-0.2439,-0.7317
1595878848,0.1681,-0.9069,0.3021,-0.4878,-0.3659,-0.8537
1595878848,0.1661,-0.9061,0.3040,-0.5488,-0.4268,-0.9146
1595878848,0.1660,-0.9044,0.3040,-0.6707,-0.6098,-0.9146
1595878848,0.1659,-0.9045,0.3035,-0.6707,-0.7317,-1.0366
1595878848,0.1665,-0.9047,0.3058,-0.6707,-0.7317,-1.0366
1595878848,0.1642,-0.9071,0.3080,-0.6098,-0.5488,-0.9146
1595878848,0.1628,-0.9069,0.3104,-0.4878,-0.4268,-0.6707
1595878848,0.1624,-0.9042,0.3115,-0.3659,-0.4268,-0.6098
1595878848,0.1627,-0.9028,0.3128,-0.3659,-0.5488,-0.5488
1595878848,0.1609,-0.9023,0.3095,-0.3049,-0.5488,-0.4268
1595878848,0.1604,-0.9014,0.3073,-0.3659,-0.7927,-0.2439
1595878848,0.1633,-0.9006,0.3049,-0.2439,-1.0976,-0.3049
1595878848,0.1637,-0.9022,0.3060,-0.1829,-1.3415,-0.0610
1595878848,0.1664,-0.9017,0.3056,-0.0610,-1.4634,0.1220
1595878849,0.1723,-0.9026,0.3055,-0.1220,-1.4634,0.1829
1595878849,0.1735,-0.9041,0.3062,-0.1220,-1.2195,0.1829
1595878849,0.1754,-0.9048,0.3048,-0.1220,-0.9146,0.3049
1595878849,0.1763,-0.9046,0.3057,-0.1829,-0.4268,0.3659
1595878849,0.1767,-0.9062,0.3026,-0.2439,0.0000,0.4268
1595878849,0.1772,-0.9086,0.3027,-0.2439,0.3659,0.4878
1595878849,0.1768,-0.9073,0.3029,-0.1829,0.6098,0.5488
1595878849,0.1759,-0.9069,0.3012,-0.2439,0.6707,0.4268
1595878849,0.1766,-0.9049,0.3040,-0.3049,0.4878,0.3659
1595878849,0.1761,-0.9073,0.3016,-0.2439,0.1829,0.3049
1595878849,0.1738,-0.9069,0.3024,-0.3049,-0.0610,0.1220
1595878849,0.1752,-0.9041,0.3043,-0.3049,-0.3049,-0.1220
1595878849,0.1763,-0.9025,0.3034,-0.2439,-0.5488,-0.3049
1595878849,0.1757,-0.9028,0.3021,-0.3049,-0.5488,-0.4268
1595878849,0.1747,-0.8995,0.3024,-0.1829,-0.4268,-0.6098
1595878849,0.1725,-0.9021,0.3040,-0.1829,-0.1829,-0.6098
1595878849,0.1707,-0.9020,0.3021,-0.2439,0.0000,-0.5488
1595878849,0.1708,-0.9019,0.3030,-0.2439,0.0000,-0.3659
1595878849,0.1732,-0.9018,0.3032,-0.3659,-0.1829,-0.1829
1595878849,0.1736,-0.9047,0.3010,-0.3659,-0.1829,0.0000
1595878849,0.1743,-0.9042,0.3035,-0.4878,-0.1220,0.0000
1595878849,0.1762,-0.9042,0.3030,-0.4878,0.0000,0.0000
1595878849,0.1810,-0.9041,0.3027,-0.6098,0.0000,0.0610
1595878849,0.1783,-0.9047,0.3043,-0.8537,0.1829,0.1220
1595878849,0.1746,-0.9047,0.3044,-0.6707,0.6707,-0.1220
1595878849,0.1721,-0.9062,0.3068,-0.6707,0.8537,-0.1220
1595878849,0.1736,-0.9054,0.3051,-0.6098,0.6707,-0.2439
1595878849,0.1708,-0.9067,0.3032,-0.5488,0.5488,-0.3049
1595878849,0.1682,-0.9055,0.3014,-0.5488,0.4878,-0.3049
1595878849,0.1690,-0.9036,0.3000,-0.4878,0.3049,-0.2439
1595878849,0.1700,-0.9066,0.3046,-0.3659,-0.0610,-0.0610
1595878849,0.1728,-0.9053,0.3038,-0.3049,-0.3049,0.0000
1595878849,0.1744,-0.9061,0.3060,-0.4268,-0.4268,0.1220
1595878849,0.1703,-0.9039,0.3068,-0.4268,-0.2439,0.2439
1595878849,0.1711,-0.9014,0.3064,-0.5488,0.0610,0.1220
1595878849,0.1717,-0.8986,0.3034,-0.7317,0.0610,-0.0610
1595878849,0.1710,-0.8995,0.3040,-0.7317,-0.0610,-0.2439
1595878849,0.1714,-0.9011,0.3033,-0.5488,0.0610,-0.4268
1595878849,0.1705,-0.9025,0.3032,-0.5488,0.2439,-0.5488
1595878849,0.1688,-0.9034,0.3031,-0.6098,0.2439,-0.4878
1595878849,0.1742,-0.9024,0.3046,-0.6098,0.2439,-0.3049
1595878849,0.1736,-0.9016,0.3068,-0.4878,0.4268,-0.1829
1595878849,0.1760,-0.9011,0.3104,-0.5488,0.6707,0.0000
1595878849,0.1793,-0.9022,0.3116,-0.6098,0.9146,0.0000
1595878849,0.1733,-0.8997,0.3074,-0.5488,1.1585,-0.0610
1595878849,0.1589,-0.9072,0.2888,-1.3415,2.1341,-0.4268
1595878849,0.1666,-0.9164,0.2889,-2.2561,2.9268,-1.5244
1595878849,0.1972,-0.9068,0.3054,-0.1220,1.1585,-1.6463
1595878849,0.2133,-0.9065,0.3267,1.2195,-0.1220,-0.2439
1595878849,0.1943,-0.9045,0.3244,0.8537,1.7683,0.3659
1595878849,0.1579,-0.8990,0.3094,0.5488,5.0000,-0.5488
1595878849,0.1544,-0.9037,0.3098,-0.3659,5.7927,-1.4024
1595878849,0.1786,-0.9084,0.3094,-1.2805,3.7805,-1.1585
1595878849,0.1855,-0.9021,0.2900,-1.5854,1.4634,-1.8902
1595878849,0.1783,-0.9001,0.2882,-1.5244,1.7683,-2.8049
1595878849,0.1746,-0.9071,0.2941,-0.9756,4.0854,-1.8902
1595878849,0.1552,-0.9083,0.2901,-0.8537,5.7317,-1.2805
1595878849,0.1456,-0.9055,0.2896,-0.7927,5.6707,-1.2195
1595878849,0.1548,-0.9037,0.2977,-0.4878,3.8415,-0.9756
1595878849,0.1603,-0.9001,0.2974,0.1829,1.7073,-0.6707
1595878849,0.1667,-0.9007,0.2976,0.1220,0.5488,-0.1220
1595878849,0.1693,-0.9001,0.2944,-0.1829,0.1220,-0.1220
1595878849,0.1698,-0.9012,0.2982,-0.6098,-0.2439,-0.0610
1595878849,0.1725,-0.9006,0.2955,-0.7317,-0.9146,0.3049
1595878849,0.1793,-0.8997,0.2974,-0.6707,-1.0976,0.3049
1595878849,0.1844,-0.9000,0.3021,-0.6098,-0.9756,0.3659
1595878849,0.1818,-0.9048,0.3056,-0.6098,-0.1220,0.4268
1595878849,0.1729,-0.9091,0.3050,-0.7927,1.0366,0.1829
1595878849,0.1714,-0.9076,0.3021,-0.6098,1.4634,0.0000
1595878849,0.1692,-0.9050,0.3042,-0.4268,0.6707,-0.1829
1595878849,0.1724,-0.9059,0.3076,-0.3049,-0.3049,-0.2439
1595878849,0.1777,-0.9045,0.3060,-0.1220,-1.0366,-0.3659
1595878849,0.1774,-0.9025,0.3068,-0.1220,-1.3415,-0.4878
1595878849,0.1783,-0.9053,0.3091,-0.1829,-1.1585,-0.5488
1595878849,0.1738,-0.9026,0.3082,-0.3049,-0.9146,-0.6098
1595878849,0.1740,-0.9017,0.3088,-0.3659,-0.6098,-0.6098
1595878849,0.1739,-0.9039,0.3089,-0.3659,-0.4878,-0.6098
1595878849,0.1729,-0.9025,0.3083,-0.2439,-0.1220,-0.4878
1595878849,0.1729,-0.9034,0.3055,-0.3659,0.0000,-0.4268
1595878849,0.1746,-0.9044,0.3049,-0.3659,0.0000,-0.3659
1595878849,0.1743,-0.9064,0.3069,-0.3659,0.1829,-0.3659
1595878849,0.1731,-0.9053,0.3058,-0.2439,0.4268,-0.3659
1595878849,0.1705,-0.9047,0.3047,-0.1829,0.7317,-0.2439
1595878849,0.1710,-0.9066,0.3040,-0.2439,0.7317,-0.3659
1595878849,0.1727,-0.9099,0.3037,-0.3659,0.4878,-0.3659
1595878849,0.1687,-0.9117,0.2993,-0.2439,0.3049,-0.1829
1595878849,0.1654,-0.9100,0.3004,-0.1220,0.3659,-0.2439
1595878849,0.1652,-0.9082,0.3030,-0.3049,0.5488,-0.3049
1595878849,0.1661,-0.9066,0.3018,-0.3049,0.4268,-0.2439
1595878849,0.1627,-0.9081,0.2987,-0.2439,0.1829,-0.1829
1595878849,0.1616,-0.9113,0.2996,-0.3659,0.0000,0.0000
1595878849,0.1660,-0.9117,0.2989,-0.4268,-0.0610,0.3049
1595878849,0.1679,-0.9161,0.3018,-0.3659,-0.2439,0.4268
1595878849,0.1638,-0.9196,0.3046,-0.4268,-0.1829,0.5488
1595878849,0.1583,-0.9188,0.3116,-0.4268,0.0000,0.7927
1595878849,0.1448,-0.9182,0.3246,-0.4268,0.0610,0.9146
1595878849,0.1138,-0.9099,0.3394,-0.3049,-0.1220,0.9756
1595878849,0.0859,-0.9004,0.3427,-0.2439,-1.7073,1.0976
1595878849,0.0882,-0.9025,0.3467,-0.0610,-5.7317,1.6463
1595878849,0.1026,-0.9124,0.3491,0.8537,-11.2805,1.7073
1595878849,0.0919,-0.9026,0.3726,2.1951,-16.0976,1.6463
1595878850,0.0663,-0.9036,0.4210,2.7439,-18.4146,2.5000
1595878850,0.0636,-0.9118,0.4635,3.5366,-20.6098,4.3902
1595878850,0.0676,-0.9178,0.5201,6.4024,-23.4756,6.3415
1595878850,0.0596,-0.9076,0.5707,9.7561,-25.3659,8.2927
1595878850,0.0507,-0.9068,0.5977,14.1463,-25.7317,10.3659
1595878850,0.0465,-0.9031,0.6292,18.4756,-25.8537,11.9512
1595878850,0.0301,-0.8983,0.6768,22.6220,-25.6707,13.7195
1595878850,0.0188,-0.8919,0.7131,27.1951,-24.6341,15.8537
1595878850,0.0151,-0.8938,0.7520,32.5610,-23.4146,18.0488
1595878850,0.0126,-0.8872,0.7939,37.9268,-22.1341,20.2439
1595878850,0.0082,-0.8770,0.8254,43.0488,-19.7561,22.9268
1595878850,-0.0064,-0.8821,0.8544,46.5244,-17.6829,25.7317
1595878850,-0.0285,-0.8817,0.8824,48.9634,-17.3780,28.5976
1595878850,-0.0576,-0.8848,0.9042,51.4634,-19.5122,31.3415
1595878850,-0.0604,-0.9077,0.9283,53.7805,-26.6463,35.1220
1595878850,-0.0490,-0.9216,0.9516,57.3781,-38.9024,39.0244
1595878850,-0.0645,-0.9200,0.9610,62.8659,-51.0976,42.6220
1595878850,-0.0674,-0.9444,0.9253,67.5610,-62.5000,46.2195
1595878850,-0.0488,-0.9624,0.8831,71.7073,-77.3781,49.8781
1595878850,0.0018,-0.9639,0.8553,76.8293,-96.2805,53.7195
1595878850,0.0649,-0.9594,0.8344,81.2805,-116.0366,57.2561
1595878850,0.1288,-0.9811,0.8286,83.1707,-134.6951,59.0854
1595878850,0.2057,-1.0078,0.8386,86.2195,-153.1707,59.6341
1595878850,0.3015,-1.0317,0.8370,92.8049,-170.1219,58.2927
1595878850,0.3879,-1.0483,0.8398,99.0244,-185.3049,53.9634
1595878850,0.4523,-1.0542,0.8083,104.0244,-199.0854,46.6463
1595878850,0.5114,-1.0858,0.7319,107.3171,-211.0366,36.5854
1595878850,0.5684,-1.1110,0.6956,110.6707,-222.1342,24.1463
1595878850,0.6140,-1.0955,0.6402,116.8902,-230.0610,10.0610
1595878850,0.6450,-1.0881,0.5574,121.8293,-234.2073,-6.0976
1595878850,0.6542,-1.0727,0.4911,122.7439,-237.2561,-22.5000
1595878850,0.6653,-1.0313,0.3981,122.3171,-240.0000,-36.7073
1595878850,0.7062,-1.0099,0.3364,120.6098,-244.8781,-52.1951
1595878850,0.7596,-0.9891,0.3220,118.1707,-252.3781,-68.6585
1595878850,0.7946,-0.9468,0.2866,115.6707,-257.8049,-84.6951
1595878850,0.8067,-0.9017,0.2249,111.4024,-260.9146,-100.1220
1595878850,0.8147,-0.8971,0.1802,102.5610,-264.6951,-115.4878
1595878850,0.8565,-0.8995,0.1490,91.8293,-272.4390,-129.4512
1595878850,0.9443,-0.8958,0.1349,84.5122,-281.5244,-142.2561
1595878850,1.0261,-0.8766,0.1010,78.8415,-285.7927,-155.1829
1595878850,1.0422,-0.8489,0.0479,72.5000,-280.7927,-168.2927
1595878850,1.0264,-0.8370,0.0146,63.3537,-269.3903,-179.3902
1595878850,1.0369,-0.8017,-0.0187,54.8171,-259.3293,-188.1707
1595878850,1.0463,-0.7379,-0.0547,48.6585,-250.9146,-196.2805
1595878850,1.0626,-0.7059,-0.0607,42.4390,-240.4268,-204.4512
1595878850,1.0989,-0.7225,-0.0519,37.0122,-228.1098,-212.0122
1595878850,1.0967,-0.7069,-0.0396,31.4024,-212.5000,-214.5732
1595878850,1.0077,-0.6903,-0.0627,24.5122,-194.8781,-216.8293
1595878850,0.9695,-0.6587,-0.0979,14.8171,-181.7073,-219.2073
1595878850,0.9991,-0.6487,-0.1299,7.3171,-173.1707,-219.0854
1595878850,1.0319,-0.6561,-0.1284,-3.5976,-165.7317,-216.9512
1595878850,1.0454,-0.6226,-0.1084,-12.6220,-159.5732,-214.0854
1595878850,1.0275,-0.5917,-0.1226,-18.9634,-151.4634,-211.2805
1595878850,0.9714,-0.5679,-0.1628,-29.0854,-139.2683,-208.1707
1595878850,0.9374,-0.5266,-0.2065,-36.3415,-125.8537,-205.2439
1595878850,0.9119,-0.5004,-0.2726,-43.3537,-115.7317,-201.5854
1595878850,0.8812,-0.4619,-0.3398,-52.1951,-107.6829,-197.1951
1595878850,0.8683,-0.4244,-0.3943,-61.5244,-101.1585,-191.9512
1595878850,0.8844,-0.3928,-0.4333,-70.1829,-95.1220,-185.8537
1595878850,0.9084,-0.3720,-0.4492,-76.2195,-88.2317,-179.5122
1595878850,0.9009,-0.3557,-0.4568,-81.4634,-80.2439,-173.4146
1595878850,0.8932,-0.3367,-0.4708,-87.8049,-73.0488,-168.2317
1595878850,0.8967,-0.3175,-0.4761,-94.1463,-69.2683,-163.9634
1595878850,0.8917,-0.2867,-0.4786,-101.0366,-67.6220,-160.4268
1595878850,0.8795,-0.2581,-0.4709,-109.2073,-65.4268,-156.5854
1595878850,0.8934,-0.2371,-0.4695,-117.3781,-62.5000,-152.5000
1595878850,0.9429,-0.2227,-0.4684,-123.7195,-58.2317,-148.2317
1595878850,0.9843,-0.2106,-0.4457,-128.1707,-50.9756,-142.9268
1595878850,0.9517,-0.2210,-0.4082,-131.5244,-39.4512,-138.3537
1595878850,0.9132,-0.2318,-0.3992,-136.4634,-29.3293,-134.6342
1595878850,0.9037,-0.2093,-0.4078,-141.7683,-25.5488,-130.5488
1595878850,0.8915,-0.1617,-0.4091,-146.8293,-24.5732,-126.6463
1595878850,0.9055,-0.1323,-0.3969,-153.7195,-24.5732,-122.5000
1595878850,0.9363,-0.1163,-0.3370,-161.0366,-23.9634,-118.4146
1595878850,0.9447,-0.0840,-0.2866,-166.2805,-17.3171,-114.2683
1595878850,0.9623,-0.0490,-0.2546,-167.9878,-5.7927,-110.1829
1595878850,0.9654,-0.0300,-0.2349,-165.3049,6.2805,-106.5854
1595878850,0.9584,-0.0109,-0.2347,-160.6707,18.1707,-103.1098
1595878850,0.9560,-0.0229,-0.2752,-159.8171,27.8659,-101.5854
1595878850,0.9566,-0.0173,-0.3597,-161.8902,34.0854,-101.6463
1595878851,0.9979,-0.0287,-0.4503,-166.5244,34.0244,-102.6829
1595878851,1.0391,-0.0766,-0.4893,-174.6951,27.0732,-104.6951
1595878851,1.0592,-0.1235,-0.4699,-186.5854,17.4390,-105.7927
1595878851,1.0515,-0.1011,-0.4182,-197.8659,10.0610,-105.1220
1595878851,0.9998,-0.0640,-0.3087,-205.3049,9.5122,-102.0122
1595878851,0.9697,-0.0825,-0.1353,-217.1342,16.4024,-99.1463
1595878851,0.9887,-0.0490,-0.0214,-232.9268,30.3659,-98.1098
1595878851,1.0162,0.0030,0.0643,-242.9878,49.8171,-98.2317
1595878851,1.0280,-0.0197,0.1512,-250.1829,74.1463,-99.8171
1595878851,1.0416,-0.0504,0.2695,-255.1220,101.6463,-102.5610
1595878851,0.9930,-0.1190,0.3961,-256.3415,130.3659,-105.1829
1595878851,0.8292,-0.1707,0.4813,-259.0244,162.3781,-106.3415
1595878851,0.6757,-0.2487,0.5581,-263.2927,191.8293,-107.4390
1595878851,0.5883,-0.1977,0.7022,-261.2805,210.1829,-107.0122
1595878851,0.4905,-0.1763,0.9226,-257.5000,218.9634,-106.0366
1595878851,0.2415,0.1318,1.0380,-259.4512,234.5732,-111.7683
1595878851,-0.9849,-0.9517,1.7991,-257.9268,256.6464,-117.1951
1595878851,-1.0046,-1.9158,0.7594,-174.3293,121.1585,-57.7439
1595878851,0.1578,0.4567,1.0948,261.4634,-47.5610,-234.3293
1595878851,0.3615,0.8333,0.5940,90.7317,8.7195,-108.4756
1595878851,-0.2841,1.9999,0.1100,105.5488,-5.3049,-56.7073
1595878851,-0.1049,1.0729,0.1577,175.0610,99.7561,-160.7927
1595878851,-0.2264,0.4395,0.1570,12.5610,130.7317,-94.6341
1595878851,0.7017,0.5253,0.4633,-9.6341,29.1463,-25.9146
1595878851,0.3992,0.7080,0.5225,26.1585,-15.3659,-6.6463
1595878851,0.3873,0.6552,0.5215,27.9878,-11.8902,-7.2561
1595878851,0.3640,0.6559,0.4424,29.0854,-19.7561,-6.7683
1595878851,0.3754,0.6692,0.4051,28.2317,-27.8049,-8.1098
1595878851,0.4484,0.6623,0.4202,26.7683,-41.2805,-9.9390
1595878851,0.5272,0.6327,0.4459,23.1098,-56.7683,-11.7683
1595878851,0.6325,0.7070,0.5357,7.7439,-29.1463,-13.1098
1595878851,0.6436,0.6962,0.5089,-0.4878,-34.7561,-12.1951
1595878851,0.6480,0.7103,0.4870,-3.6585,-38.1098,-10.9146
1595878851,0.6468,0.7256,0.4791,-6.1585,-37.8049,-9.0854
1595878851,0.6382,0.7476,0.4648,-7.2561,-32.8049,-7.3780
1595878851,0.5801,0.7292,0.4338,-7.0732,-14.8780,-4.7561
1595878851,0.6077,0.6866,0.4419,-9.8171,-16.0366,-4.6951
1595878851,0.6324,0.6859,0.4368,-9.9390,-14.5732,-5.0000
1595878851,0.7115,0.4696,0.3475,-29.9390,-36.8902,-22.8049
1595878851,0.3199,0.4505,0.2363,-35.4878,-7.1951,-29.8171
1595878851,0.2420,0.2705,0.1371,-63.6585,-1.8293,-2.6220
1595878851,0.3486,0.1602,0.2466,-83.2927,-18.8415,20.7317
1595878851,0.3936,0.0982,0.3294,-108.9634,-25.2439,63.2317
1595878851,0.4293,0.0443,0.4185,-117.3781,-38.0488,72.1951
1595878851,0.5367,-0.0112,0.5122,-122.6220,-53.2317,85.1829
1595878851,0.4911,0.0062,0.5629,-122.7439,-59.6341,97.0122
1595878851,0.4376,0.1980,0.6085,-125.7317,-56.0976,117.3171
1595878851,0.5894,0.0974,0.5917,-121.8293,-62.5000,120.6707
1595878851,0.7463,-0.0113,0.5712,-128.2317,-84.5732,123.8415
1595878851,0.8685,-0.1176,0.6086,-134.0854,-107.0732,141.4024
1595878851,0.9677,-0.1672,0.6516,-135.6707,-125.8537,155.1829
1595878851,0.8795,-0.0270,0.5934,-126.4024,-131.5854,158.5366
1595878851,0.8636,-0.1114,0.5615,-112.8049,-128.4756,154.8171
1595878851,1.0842,-0.1685,0.5318,-109.7561,-138.5366,161.6463
1595878851,1.1909,-0.0593,0.4003,-98.9024,-156.7073,169.6951
1595878851,1.3337,-0.0523,0.2710,-85.6098,-166.7073,164.6951
1595878851,1.5045,-0.0440,0.1040,-78.2317,-166.0366,165.6098
1595878851,1.5729,-0.1430,0.0234,-68.2927,-146.4634,165.8537
1595878851,1.4566,-0.3099,0.1514,-63.5366,-112.9878,166.5854
1595878852,1.2938,-0.3456,0.3781,-60.5488,-88.7195,176.2195
1595878852,1.1428,-0.2628,0.5621,-48.5366,-86.0366,186.0976
1595878852,0.9819,-0.1631,0.6074,-34.0854,-99.5732,186.5244
1595878852,1.0244,-0.2083,0.5660,-25.9756,-135.6707,183.2927
1595878852,1.2350,-0.3198,0.5409,-16.2805,-194.3293,176.4634
1595878852,1.4222,-0.3295,0.5394,1.2805,-253.1707,175.9146
1595878852,1.5096,-0.2990,0.5080,24.4512,-281.2805,181.2195
1595878852,1.5227,-0.2718,0.4691,51.0976,-272.3171,184.1463
1595878852,1.5175,-0.2431,0.4456,80.2439,-241.5854,188.7195
1595878852,1.4790,-0.2089,0.4335,106.0976,-198.9634,196.0366
1595878852,1.4399,-0.1765,0.4001,127.6220,-149.6342,202.8659
1595878852,1.4230,-0.1777,0.3031,144.8781,-100.6707,209.7561
1595878852,1.3964,-0.2057,0.1714,154.6342,-63.4146,216.3415
1595878852,1.3649,-0.2527,0.0731,156.7073,-42.0732,220.9756
1595878852,1.3190,-0.2792,0.0327,152.8049,-35.7317,222.0122
1595878852,1.2545,-0.2621,0.0211,147.1951,-37.3780,221.7073
1595878852,1.2187,-0.2415,0.0297,140.4878,-38.5366,222.3171
1595878852,1.1808,-0.2179,0.0309,131.8902,-32.8659,224.2683
1595878852,1.1132,-0.1988,-0.0030,121.2195,-21.4024,225.8537
1595878852,1.0881,-0.1851,-0.0257,108.1098,-13.4146,227.1342
1595878852,1.1028,-0.1866,-0.0203,94.1463,-15.1220,227.8049
1595878852,1.0935,-0.1865,-0.0170,80.1220,-20.3049,226.9512
1595878852,1.0535,-0.1935,-0.0080,65.3659,-24.6951,225.6098
1595878852,0.9978,-0.2021,0.0024,50.1829,-30.0000,223.9634
1595878852,0.9329,-0.2157,0.0089,36.0976,-36.7683,222.1342
1595878852,0.9391,-0.2613,0.0345,24.0854,-38.5366,220.3659
1595878852,0.9308,-0.2942,0.0546,17.5610,-25.3659,220.5488
1595878852,0.8545,-0.3418,0.0946,13.1707,3.7805,222.2561
1595878852,0.7732,-0.4054,0.1328,8.4146,40.5488,223.6585
1595878852,0.7501,-0.5029,0.1704,4.2073,70.9146,225.6098
1595878852,0.7900,-0.6199,0.1998,1.0366,93.2927,227.3171
1595878852,0.8203,-0.7182,0.2147,-0.0610,111.5244,229.2683
1595878852,0.8035,-0.7950,0.2231,0.8537,129.3293,231.4634
1595878852,0.7556,-0.8892,0.2335,0.0000,144.4512,234.8171
1595878852,0.7119,-1.0017,0.2490,-3.2317,152.8049,239.3902
1595878852,0.6786,-1.1195,0.2686,-6.4634,154.6342,243.1707
1595878852,0.6231,-1.2435,0.2785,-10.1220,152.9878,246.5854
1595878852,0.5587,-1.3557,0.2781,-15.5488,150.6707,249.3902
1595878852,0.4907,-1.4406,0.2627,-19.5122,146.8902,250.9146
1595878852,0.4370,-1.5383,0.2809,-24.2073,140.3049,249.7561
1595878852,0.4338,-1.6218,0.3242,-24.7561,132.5610,244.7561
1595878852,0.4292,-1.6326,0.3591,-18.5976,124.6951,237.8049
1595878852,0.3726,-1.5975,0.3611,-12.3171,117.8049,226.0976
1595878852,0.3001,-1.5370,0.3426,-13.1098,107.9878,209.4512
1595878852,0.2371,-1.4071,0.2931,-16.8293,90.5488,190.1829
1595878852,0.1624,-1.2549,0.2244,-20.9756,65.1220,165.4878
1595878852,0.0917,-1.1373,0.1672,-26.7073,33.8415,136.6463
1595878852,0.0079,-1.0393,0.1255,-32.0732,1.8293,109.2683
1595878852,-0.0681,-0.9569,0.1271,-34.6341,-26.1585,82.4390
1595878852,-0.1205,-0.9296,0.1671,-35.3049,-49.8171,56.1585
1595878852,-0.1378,-0.9282,0.2164,-37.5000,-67.7439,34.2073
1595878852,-0.1277,-0.9517,0.2717,-37.8659,-78.2317,15.6098
1595878852,-0.0621,-0.9557,0.3180,-35.5488,-83.0488,-1.8293
1595878852,0.0257,-0.9275,0.2704,-26.0366,-82.5000,-14.5732
1595878852,0.0800,-0.9372,0.2328,-21.1585,-77.9878,-23.4146
1595878852,0.1150,-0.9449,0.2335,-19.4512,-69.3293,-29.5732
1595878852,0.1290,-0.9642,0.2582,-11.2805,-54.4512,-32.8659
1595878852,0.1409,-0.9713,0.2885,-8.6585,-56.2195,-31.2195
1595878852,0.1416,-0.9662,0.2953,-7.5610,-60.1829,-27.1951
1595878852,0.1592,-0.9706,0.2787,-8.1098,-60.6707,-21.0976
1595878852,0.1732,-0.9603,0.3068,-8.9634,-60.4268,-15.7317
1595878852,0.1636,-0.9391,0.3190,-8.1098,-59.6951,-12.9878
1595878852,0.1167,-0.9155,0.3071,-6.7073,-50.4878,-10.9756
1595878852,0.0691,-0.9154,0.2963,-4.7561,-35.9756,-6.5244
1595878852,0.0626,-0.9283,0.2881,-3.3537,-24.3293,-3.5976
1595878852,0.0731,-0.9357,0.2855,-0.9146,-15.7317,-2.9268
1595878852,0.0701,-0.9309,0.2741,1.7683,-6.8293,-2.6829
1595878852,0.0473,-0.9245,0.2568,3.2317,3.0488,-3.2317
1595878852,0.0370,-0.9192,0.2385,3.7195,11.0976,-5.0610
1595878852,0.0261,-0.9195,0.2195,4.6341,16.2195,-8.1098
1595878852,0.0109,-0.9365,0.2173,4.5122,19.0854,-10.6707
1595878852,0.0136,-0.9595,0.2216,3.5366,19.8171,-12.6829
1595878852,0.0202,-0.9628,0.2325,3.4146,17.8659,-14.7561
1595878852,0.0199,-0.9614,0.2343,3.7195,15.1829,-18.1098
1595878852,0.0150,-0.9619,0.2345,3.5366,12.6220,-20.9146
1595878852,0.0314,-0.9558,0.2364,3.2317,9.4512,-22.3171
1595878852,0.0554,-0.9466,0.2415,3.7805,5.8537,-23.8415
1595878852,0.0776,-0.9510,0.2476,4.1463,3.3537,-25.7317
1595878852,0.1036,-0.9578,0.2520,4.6341,2.6220,-27.4390
1595878852,0.1382,-0.9618,0.2505,5.3659,2.6220,-29.2073
1595878852,0.1668,-0.9660,0.2500,6.2195,3.8415,-31.4634
1595878852,0.1910,-0.9686,0.2427,7.1341,6.8293,-34.3902
1595878852,0.2125,-0.9695,0.2351,8.2317,11.7683,-37.4390
1595878852,0.2283,-0.9654,0.2320,9.5122,18.9024,-40.1220
1595878852,0.2316,-0.9671,0.2281,11.3415,27.8049,-42.8659
1595878852,0.2417,-1.0065,0.2297,12.7439,38.1707,-45.6707
1595878852,0.2692,-1.0208,0.2527,14.6951,47.0732,-46.4634
1595878852,0.2487,-0.9661,0.2767,17.1341,52.4390,-43.5366
1595878852,0.2059,-0.9318,0.2698,18.1098,58.7195,-46.1585
1595878852,0.1648,-0.9328,0.2479,16.8902,61.9512,-49.3293
1595878852,0.1465,-0.9326,0.2291,13.4146,58.1098,-47.0732
1595878852,0.1511,-0.9218,0.2088,11.3415,51.8902,-46.4634
1595878852,0.1643,-0.8967,0.1953,9.2683,46.6463,-46.8902
1595878852,0.1722,-0.8837,0.1878,6.0366,43.6585,-46.2805
1595878852,0.1741,-0.8856,0.1747,2.6829,44.4512,-45.1220
1595878852,0.1739,-0.8755,0.1734,-1.0976,46.2195,-42.6829
1595878852,0.1814,-0.8636,0.1763,-3.8415,47.4390,-40.5488
1595878852,0.1848,-0.8533,0.1780,-6.4634,48.9634,-39.3902
1595878852,0.1859,-0.8508,0.1821,-9.4512,50.3659,-37.5610
1595878852,0.2012,-0.8498,0.1901,-11.5854,50.9756,-35.1829
1595878852,0.2157,-0.8457,0.1958,-12.9268,51.7683,-32.6220
1595878852,0.2218,-0.8540,0.2049,-14.5122,54.5122,-30.1829
1595878852,0.2496,-0.8773,0.2186,-15.7927,59.2073,-27.8049
1595878852,0.2773,-0.8958,0.2280,-16.0976,64.2073,-24.8171
1595878852,0.2985,-0.9156,0.2312,-15.7317,70.0610,-23.1098
1595878852,0.3222,-0.9363,0.2388,-15.3659,77.0122,-21.7683
1595878852,0.3355,-0.9534,0.2377,-14.5122,84.0854,-20.2439
1595878852,0.3272,-0.9529,0.2268,-12.8659,91.2805,-19.5122
1595878853,0.3235,-0.9463,0.2097,-11.2805,97.7439,-18.3537
1595878853,0.3234,-0.9440,0.1951,-8.9634,104.4512,-18.5976
1595878853,0.3088,-0.9444,0.1792,-6.8902,110.8537,-18.2317
1595878853,0.2880,-0.9450,0.1658,-5.6707,115.8537,-17.6829
1595878853,0.2766,-0.9397,0.1582,-4.3293,117.8049,-17.4390
1595878853,0.2701,-0.9352,0.1552,-2.8049,116.8293,-17.5610
1595878853,0.2572,-0.9277,0.1525,-1.5244,114.3293,-17.6220
1595878853,0.2404,-0.9153,0.1558,-0.7927,110.8537,-17.2561
1595878853,0.2331,-0.9232,0.1593,-0.1220,106.0976,-17.0122
1595878853,0.2319,-0.9329,0.1614,0.9146,99.9390,-16.4024
1595878853,0.2371,-0.9400,0.1603,2.1951,92.6829,-15.4268
1595878853,0.2411,-0.9501,0.1562,3.4146,84.9390,-14.8171
1595878853,0.2468,-0.9584,0.1529,4.1463,77.5610,-14.3902
1595878853,0.2558,-0.9649,0.1467,4.8780,70.4268,-13.7805
1595878853,0.2665,-0.9667,0.1393,5.9146,63.5976,-13.1707
1595878853,0.2789,-0.9661,0.1335,7.3171,57.6829,-13.0488
1595878853,0.2845,-0.9651,0.1277,8.9634,53.1098,-12.9878
1595878853,0.2836,-0.9725,0.1227,10.1829,50.2439,-12.9268
1595878853,0.2841,-0.9805,0.1213,11.3415,48.4146,-12.9878
1595878853,0.2776,-0.9792,0.1213,12.3780,46.2195,-12.9268
1595878853,0.2746,-0.9768,0.1241,12.7439,43.4756,-13.2927
1595878853,0.2753,-0.9756,0.1303,12.9268,40.4878,-14.2683
1595878853,0.2798,-0.9810,0.1353,12.9268,37.5000,-15.2439
1595878853,0.2792,-0.9726,0.1459,13.1098,34.8171,-15.9146
1595878853,0.2698,-0.9572,0.1516,12.9268,32.1951,-16.0366
1595878853,0.2634,-0.9577,0.1522,12.4390,30.5488,-17.5610
1595878853,0.2675,-0.9621,0.1541,11.2195,28.4146,-17.8659
1595878853,0.2815,-0.9579,0.1573,10.4268,25.2439,-17.5610
1595878853,0.2879,-0.9518,0.1565,10.4268,22.9268,-18.4756
1595878853,0.2853,-0.9468,0.1509,9.9390,22.9878,-19.8780
1595878853,0.2845,-0.9346,0.1434,8.9634,24.2073,-20.7927
1595878853,0.2850,-0.9187,0.1367,8.9024,25.9756,-21.8293
1595878853,0.2779,-0.9058,0.1349,8.9634,28.5976,-23.1707
1595878853,0.2658,-0.8986,0.1301,8.3537,31.2805,-23.9024
1595878853,0.2606,-0.8951,0.1290,7.7439,33.2927,-24.2073
1595878853,0.2570,-0.8882,0.1290,7.7439,34.6341,-24.3293
1595878853,0.2532,-0.8871,0.1390,7.5000,35.9146,-24.3902
1595878853,0.2430,-0.8879,0.1481,6.9512,37.3780,-23.8415
1595878853,0.2340,-0.8835,0.1541,6.8293,38.3537,-22.8659
1595878853,0.2326,-0.8729,0.1603,6.4634,38.3537,-21.7683
1595878853,0.2365,-0.8660,0.1661,6.0366,38.2317,-20.7927
1595878853,0.2341,-0.8613,0.1718,5.3049,38.2317,-19.2683
1595878853,0.2292,-0.8568,0.1780,4.5122,38.5366,-17.0732
1595878853,0.2284,-0.8514,0.1882,3.9634,38.4146,-15.0610
1595878853,0.2333,-0.8505,0.1983,3.5366,37.8659,-13.1707
1595878853,0.2398,-0.8561,0.2043,3.4756,37.5610,-11.4024
1595878853,0.2354,-0.8704,0.2089,3.7805,38.1707,-9.6341
1595878853,0.2275,-0.8950,0.2097,3.5976,39.5732,-7.7439
1595878853,0.2250,-0.9245,0.2080,3.9024,40.9146,-5.6098
1595878853,0.2179,-0.9531,0.2056,4.6951,42.0122,-2.8659
1595878853,0.2076,-0.9869,0.2056,4.5122,42.9878,0.3659
1595878853,0.2032,-1.0187,0.2077,4.0244,42.9268,3.4756
1595878853,0.1899,-1.0195,0.2113,3.0488,40.7317,6.8293
1595878853,0.1842,-1.0063,0.2209,1.0366,37.9878,9.0854
1595878853,0.1781,-0.9899,0.2307,-1.2195,35.3659,10.7317
1595878853,0.1659,-0.9595,0.2364,-3.8415,32.7439,11.8902
1595878853,0.1509,-0.9430,0.2410,-6.8293,30.5488,12.4390
1595878853,0.1390,-0.9424,0.2498,-9.8171,28.7195,13.2927
1595878853,0.1242,-0.9499,0.2628,-12.6829,26.8902,14.1463
1595878853,0.1179,-0.9565,0.2836,-15.5488,24.7561,14.8171
1595878853,0.1243,-0.9632,0.3059,-18.1098,22.6220,14.7561
1595878853,0.1302,-0.9686,0.3265,-19.8780,21.4634,14.1463
1595878853,0.1351,-0.9559,0.3403,-21.8902,20.9146,13.6585
1595878853,0.1362,-0.9300,0.3484,-24.2683,20.6707,13.1098
1595878853,0.1346,-0.9055,0.3511,-25.6098,21.4634,11.3415
1595878853,0.1407,-0.8928,0.3452,-25.4268,23.2317,10.0610
1595878853,0.1367,-0.8816,0.3327,-24.0854,26.7683,9.3902
1595878853,0.1230,-0.8799,0.3146,-21.7073,32.3171,8.5976
1595878853,0.1057,-0.8867,0.2966,-19.4512,38.9634,8.2317
1595878853,0.0828,-0.8950,0.2800,-17.1341,45.2439,8.5366
1595878853,0.0511,-0.9024,0.2667,-15.1220,50.6098,8.7195
1595878853,0.0251,-0.9178,0.2612,-14.0854,53.2927,8.7805
1595878853,0.0125,-0.9346,0.2596,-13.1707,52.5610,8.9634
1595878853,0.0061,-0.9455,0.2725,-12.1341,49.2073,9.1463
1595878853,0.0113,-0.9591,0.2889,-11.5244,44.7561,10.0610
1595878853,0.0220,-0.9730,0.3040,-11.0976,40.1220,11.5244
1595878853,0.0239,-0.9841,0.3165,-11.1585,36.3415,13.3537
1595878853,0.0266,-0.9829,0.3227,-11.4024,33.6585,14.4512
1595878853,0.0350,-0.9728,0.3249,-11.5854,31.2195,14.7561
1595878853,0.0416,-0.9579,0.3267,-11.7683,28.7195,14.5122
1595878853,0.0382,-0.9423,0.3229,-11.7683,26.8902,13.3537
1595878853,0.0317,-0.9283,0.3165,-12.0122,25.8537,11.6463
1595878853,0.0316,-0.9133,0.3147,-12.0732,24.8171,9.7561
1595878853,0.0357,-0.9012,0.3150,-11.6463,23.8415,7.6829
1595878853,0.0315,-0.8873,0.3082,-11.2195,23.6585,5.4268
1595878853,0.0236,-0.8657,0.3037,-10.9146,23.8415,2.9878
1595878853,0.0137,-0.8434,0.2963,-10.7317,23.8415,0.6707
1595878853,0.0079,-0.8290,0.2896,-10.8537,23.2927,-1.0976
1595878853,0.0110,-0.8246,0.2856,-10.4878,22.4390,-2.3171
1595878853,0.0168,-0.8206,0.2805,-9.6951,21.6463,-3.3537
1595878853,0.0176,-0.8168,0.2748,-9.0854,21.0366,-3.7195
1595878853,0.0217,-0.8169,0.2731,-8.6585,20.1829,-3.5366
1595878853,0.0287,-0.8146,0.2699,-8.0488,19.3293,-2.7439
1595878854,0.0313,-0.8157,0.2663,-7.5610,18.6585,-1.8902
1595878854,0.0333,-0.8183,0.2648,-7.0732,17.9878,-0.8537
1595878854,0.0384,-0.8123,0.2652,-6.9512,16.9512,0.6098
1595878854,0.0499,-0.8142,0.2643,-6.7683,15.9146,1.8293
1595878854,0.0635,-0.8192,0.2659,-6.7073,15.3659,2.9878
1595878854,0.0735,-0.8253,0.2637,-6.7683,15.7317,4.3293
1595878854,0.0739,-0.8273,0.2597,-7.1341,16.9512,5.4878
1595878854,0.0737,-0.8275,0.2574,-8.1098,18.1707,6.4634
1595878854,0.0862,-0.8292,0.2582,-9.0854,18.6585,7.3171
1595878854,0.0923,-0.8279,0.2604,-9.5732,18.9634,7.7439
1595878854,0.0899,-0.8233,0.2574,-10.1829,19.9390,7.6829
1595878854,0.0916,-0.8261,0.2530,-10.9756,21.4634,7.6829
1595878854,0.0938,-0.8253,0.2436,-11.9512,22.3780,7.6829
1595878854,0.0964,-0.8254,0.2379,-12.8659,22.6220,7.3171
1595878854,0.1002,-0.8260,0.2355,-13.4756,22.3780,7.1951
1595878854,0.1061,-0.8326,0.2325,-14.2073,22.1951,7.2561
1595878854,0.1086,-0.8441,0.2414,-14.4512,22.3780,7.1341
1595878854,0.1089,-0.8514,0.2423,-14.7561,22.4390,6.7073
1595878854,0.1102,-0.8587,0.2417,-14.9390,22.3780,6.0976
1595878854,0.1153,-0.8704,0.2439,-15.1220,21.8902,5.1220
1595878854,0.1190,-0.8841,0.2438,-14.7561,20.9146,3.9634
1595878854,0.1213,-0.9016,0.2407,-14.0854,20.1829,2.7439
1595878854,0.1207,-0.9189,0.2393,-13.3537,19.2073,1.2805
1595878854,0.1188,-0.9346,0.2391,-12.4390,17.9878,-0.3659
1595878854,0.1165,-0.9491,0.2375,-11.4024,16.4024,-2.1341
1595878854,0.1133,-0.9595,0.2283,-10.2439,14.3293,-4.2073
1595878854,0.1132,-0.9663,0.2147,-9.3293,11.5854,-6.1585
1595878854,0.1111,-0.9637,0.2013,-8.7195,8.0488,-8.5366
1595878854,0.1508,-1.1466,0.2596,-8.9024,-13.5976,-19.3902
1595878854,0.1564,-1.1551,0.2704,-9.4512,-14.4512,-19.8780
1595878854,0.1686,-1.1630,0.2761,-9.4512,-14.2683,-19.5732
1595878854,0.1825,-1.1666,0.2786,-8.8415,-13.2927,-19.1463
1595878854,0.2009,-1.1683,0.2801,-8.3537,-11.7073,-19.0854
1595878854,0.1924,-1.0791,0.2858,-6.2805,3.3537,-26.2805
1595878854,0.1908,-1.0510,0.2934,-5.1829,6.3415,-30.3049
1595878854,0.1973,-1.0368,0.2988,-2.6220,9.4512,-34.5732
1595878854,0.1990,-1.0309,0.2903,0.7927,13.3537,-39.1463
1595878854,0.1953,-1.0295,0.2769,4.4512,18.5366,-44.0854
1595878854,0.1868,-1.0454,0.2689,7.2561,24.2683,-47.9878
1595878854,0.1763,-1.0575,0.2654,10.6098,29.5122,-51.1585
1595878854,0.1559,-1.0655,0.2562,14.7561,34.7561,-54.3902
1595878854,0.1277,-1.0728,0.2463,18.5366,39.2073,-57.0122
1595878854,0.1063,-1.0706,0.2335,22.1341,41.4634,-59.2073
1595878854,0.0928,-1.0604,0.2267,26.0366,40.9756,-61.2805
1595878854,0.0855,-1.0450,0.2236,30.1829,38.9024,-63.1098
1595878854,0.0804,-1.0313,0.2214,34.4512,36.2805,-64.7561
1595878854,0.0791,-1.0251,0.2192,38.4756,33.3537,-66.4634
1595878854,0.1010,-1.0068,0.2263,44.3902,25.4268,-68.6585
1595878854,0.1296,-0.9855,0.2349,47.5610,19.7561,-70.2439
1595878854,0.1421,-0.9526,0.2328,52.6829,10.1829,-75.4878
1595878854,0.1545,-0.9333,0.2166,56.2805,2.1341,-79.2683
1595878854,0.1991,-0.9178,0.1860,61.0366,-7.2561,-81.7073
1595878854,0.1975,-0.9084,0.1720,61.5244,-9.8171,-82.0732
1595878854,0.2219,-0.8998,0.1680,61.0976,-12.2561,-81.0976
1595878854,0.2665,-0.8937,0.1735,61.4024,-15.2439,-79.8171
1595878854,0.2962,-0.8914,0.1819,62.5000,-17.6220,-78.5976
1595878854,0.3160,-0.8749,0.1738,62.7439,-18.5976,-74.0854
1595878854,0.3415,-0.8620,0.1778,61.7073,-20.1829,-70.9756
1595878854,0.3616,-0.8375,0.1892,61.4634,-22.8049,-67.9268
1595878854,0.3730,-0.8167,0.2034,61.4634,-24.4512,-64.9390
1595878854,0.3792,-0.8068,0.2088,61.0976,-24.3293,-61.8293
1595878854,0.3865,-0.8011,0.2117,60.6707,-23.9634,-58.6585
1595878854,0.3960,-0.7786,0.2010,60.6098,-24.2683,-55.1829
1595878854,0.3959,-0.7521,0.1925,59.6341,-23.6585,-52.5000
1595878854,0.4180,-0.7327,0.1831,57.4390,-22.8659,-50.4268
1595878854,0.4459,-0.7193,0.1751,55.7927,-23.4146,-48.7805
1595878854,0.4683,-0.7104,0.1733,53.5976,-24.6951,-48.1098
1595878854,0.4976,-0.7126,0.1825,50.9756,-25.0610,-46.8902
1595878854,0.5202,-0.7204,0.1943,49.3902,-23.9634,-45.2439
1595878854,0.5245,-0.7242,0.1994,47.9268,-21.0976,-43.4146
1595878854,0.5293,-0.7263,0.2018,44.1463,-17.1951,-40.9146
1595878855,0.5453,-0.7243,0.2074,39.4512,-13.7195,-38.4146
1595878855,0.5560,-0.7191,0.2126,35.9146,-10.9146,-36.8902
1595878855,0.5519,-0.7172,0.2101,32.5000,-7.9268,-35.4878
1595878855,0.5507,-0.7001,0.2125,29.2073,-4.0854,-34.2683
1595878855,0.5436,-0.6736,0.2171,26.8902,-0.5488,-33.0488
1595878855,0.5497,-0.6729,0.2198,22.2561,0.4878,-30.8537
1595878855,0.5742,-0.6877,0.2274,17.2561,-0.5488,-28.9024
1595878855,0.5896,-0.6857,0.2339,13.9634,-1.8902,-27.0732
1595878855,0.5859,-0.6805,0.2427,10.2439,-2.2561,-25.1220
1595878855,0.5794,-0.6812,0.2570,5.3049,-1.9512,-23.1707
1595878855,0.5759,-0.6691,0.2728,1.7073,0.0610,-22.4390
1595878855,0.5662,-0.6562,0.3082,-0.4878,3.8415,-21.8902
1595878855,0.5628,-0.6402,0.3487,-2.9268,8.9024,-21.4024
1595878855,0.5667,-0.6173,0.3725,-4.0854,14.6951,-21.8293
1595878855,0.8934,-0.7088,0.4143,7.0732,58.5366,-22.9878
1595878855,0.6245,-0.7599,0.4628,8.7805,171.9512,-26.3415
1595878855,0.5720,-0.7968,0.4839,7.8659,184.4512,-24.4512
1595878855,0.4980,-0.8116,0.4922,7.5610,190.0000,-24.0244
1595878855,0.4248,-0.8172,0.4844,5.1829,194.2073,-20.6098
1595878855,0.3297,-0.8574,0.4852,-4.7561,185.7317,-7.8659
1595878855,0.3008,-0.8981,0.5655,-16.0366,151.4634,9.4512
1595878855,0.1872,-0.8585,0.6933,-21.7073,117.1341,18.2317
1595878855,0.1763,-0.7890,0.8098,-22.8049,82.6220,17.8049
1595878855,0.2028,-0.7708,0.8539,-24.9390,60.0000,10.0610
1595878855,0.1902,-0.7317,0.8210,-20.2439,48.6585,-1.3415
1595878855,0.1973,-0.7514,0.7854,-18.5976,40.4268,-11.0366
1595878855,0.1937,-0.7361,0.7660,-15.8537,36.8902,-14.9390
1595878855,0.1824,-0.7354,0.7562,-12.7439,36.4024,-18.0488
1595878855,0.1778,-0.7441,0.7523,-10.3659,37.8049,-19.5122
1595878855,0.1829,-0.7455,0.7689,-2.0122,44.5122,-20.3659
1595878855,0.1898,-0.7161,0.7664,7.1341,50.9756,-20.3049
1595878855,0.1946,-0.6684,0.7493,12.2561,55.7927,-20.3659
1595878855,0.2347,-0.6251,0.7019,10.9146,49.5732,-18.8415
1595878856,0.2260,-0.5707,0.6597,13.9634,48.6585,-25.7927
1595878856,0.2246,-0.5378,0.6815,14.6341,-6.0976,-25.2439
1595878856,0.2993,-0.5349,0.6526,9.7561,-27.1341,-26.8902
1595878856,0.3055,-0.5253,0.6495,7.7439,-35.1829,-27.8049
1595878856,0.3351,-0.5106,0.6766,2.4390,-53.2927,-29.5732
1595878856,0.5160,-0.5247,0.6033,-2.5000,-58.1707,-36.5244
1595878856,0.4827,-0.4972,0.6188,-2.5610,-24.0244,-39.8780
1595878856,0.5070,-0.5520,0.5341,-16.6463,-18.8415,-30.8537
1595878856,0.4931,-0.5453,0.5144,-15.6098,-6.9512,-28.2317
1595878856,0.4661,-0.5605,0.4900,-15.9146,4.8780,-26.2805
1595878856,0.4372,-0.5676,0.4645,-16.5244,13.5976,-24.2073
1595878856,0.4018,-0.5814,0.3913,-21.7683,19.1463,-19.6951
1595878856,0.3533,-0.7227,0.3875,-39.2683,-22.2561,7.1341
1595878856,0.3645,-0.7533,0.3808,-43.2927,-22.1951,12.3171
1595878856,0.3627,-0.7654,0.3738,-45.1829,-21.8902,17.7439
1595878856,0.2900,-0.7531,0.3678,-47.6829,-23.9024,28.4146
1595878856,0.3184,-0.7961,0.3428,-51.7683,-36.9512,34.9390
1595878856,0.4414,-0.8969,0.3121,-55.0610,-40.3049,38.4756
1595878856,0.3326,-0.9584,0.3244,-46.9512,21.3415,45.9146
1595878856,0.2538,-0.9899,0.2874,-41.0976,14.0244,13.7805
1595878856,0.2296,-0.9495,0.3324,-23.7805,65.4878,3.5366
1595878856,0.4021,-1.0189,0.3906,-20.2439,63.7195,2.4390
1595878856,0.2110,-0.9120,0.4672,-11.9512,45.4268,3.1707
1595878856,0.1841,-0.8939,0.5424,-14.9390,34.3293,5.1220
1595878856,0.5266,-1.0064,0.5762,-13.4756,-49.2683,-18.2317
1595878856,0.5678,-0.8972,0.5734,-3.1707,-46.4634,-25.1220
1595878856,0.2077,-0.7938,0.3370,0.9146,-15.7317,-31.9512
1595878856,0.2577,-0.7232,0.2457,-2.0732,-45.2439,-25.4878
1595878856,0.2200,-0.7922,0.1586,-10.7317,-49.8781,-23.7195
1595878856,0.2012,-0.9229,0.1797,-23.3537,-87.0732,-22.3171
1595878856,0.2621,-0.9437,0.0919,-24.4512,-117.8049,-20.6707
1595878856,0.5702,-1.0049,0.0427,-30.0000,-169.0854,-36.9512
1595878856,0.5861,-0.9628,0.1749,-22.0732,-177.8049,-47.7439
1595878856,0.5126,-0.8619,0.1219,-15.9756,-151.2195,-46.4634
1595878856,0.4076,-0.8236,0.0934,-13.7195,-110.0000,-42.8049
1595878856,0.3075,-0.8506,0.1185,-15.2439,-81.8293,-40.2439
1595878856,0.3153,-0.8765,0.1928,-17.0122,-88.8415,-38.9634
1595878856,1.2319,-0.8823,0.0350,-33.5976,-178.9025,-45.9146
1595878856,0.6111,-0.8474,-0.1879,-17.9268,-22.6220,-44.5732
1595878856,0.5882,-0.9290,0.0273,-21.5854,-8.7195,-49.0854
1595878856,0.4298,-0.8263,0.0077,-10.6707,-34.6951,-50.3659
1595878856,0.4209,-0.7179,-0.1413,-16.2805,-30.8537,-49.4512
1595878856,0.8460,-0.9361,-0.3677,-40.9146,-156.2195,-50.9756
1595878856,1.0385,-0.8434,-0.4977,-36.8293,-136.4024,-58.8415
1595878856,0.8204,-1.2189,0.4830,-27.5610,-96.5854,-72.6829
1595878856,0.4545,-0.9218,-0.1399,-2.4390,-93.9024,-78.8415
1595878856,0.3427,-0.7659,-0.2645,2.3171,-34.2683,-76.2195
1595878857,0.7206,-0.9402,0.1702,29.4512,-11.3415,-72.4390
1595878857,0.5425,-0.8210,-0.0216,42.6829,-31.8902,-80.0610
1595878857,0.5701,-0.8246,-0.1232,46.5854,-48.8415,-82.5610
1595878857,0.6397,-0.8305,-0.1829,47.1951,-74.2073,-84.3902
1595878857,0.6910,-0.6884,-0.3159,51.8902,-98.2317,-83.6585
1595878857,0.7853,-0.7231,-0.3371,51.0976,-82.7439,-78.1707
1595878857,0.7784,-0.7639,-0.3615,46.8902,-71.0366,-76.4634
1595878857,0.7625,-0.7072,-0.4090,46.1585,-67.3781,-80.6098
1595878857,0.7285,-0.6580,-0.4546,46.5854,-57.5610,-75.9756
1595878857,0.4028,-0.5815,-0.4272,38.5366,-57.3781,-73.6585
1595878857,0.4135,-0.4318,-0.3643,47.1951,-83.4146,-64.0854
1595878857,0.5911,-0.5139,-0.4099,44.4512,-104.7561,-54.2073
1595878857,0.8630,-0.6162,-0.4517,43.6585,-125.6098,-54.6341
1595878857,1.0009,-0.6205,-0.5112,52.8659,-130.9146,-56.4024
1595878857,0.9072,-0.6039,-0.5150,63.4146,-111.8902,-54.3902
1595878857,0.7777,-0.5568,-0.5338,72.1341,-82.8049,-52.5000
1595878857,0.7209,-0.5150,-0.6027,78.9024,-62.6220,-48.5366
1595878857,0.8631,-0.5834,-0.6708,87.8049,-71.5854,-45.1829
1595878857,0.8192,-0.5264,-0.6174,99.6951,-55.7317,-44.1463
1595878857,0.7376,-0.5214,-0.5851,104.3902,-41.3415,-40.9756
1595878857,0.6638,-0.5008,-0.5191,108.1707,-35.0000,-37.9268
1595878857,0.7603,-0.5124,-0.3879,120.6098,-36.2195,-25.4268
1595878857,0.7259,-0.4112,-0.2935,142.3171,-10.0610,-20.3049
1595878857,0.7369,-0.4003,-0.2972,147.7439,0.9756,-17.6220
1595878857,0.7626,-0.3967,-0.2936,152.0732,5.1829,-14.4512
1595878857,0.7806,-0.3850,-0.2939,155.0000,5.8537,-11.0976
1595878857,0.8064,-0.3809,-0.2932,155.8537,4.7561,-7.6220
1595878857,0.8546,-0.3887,-0.2795,156.1585,2.8659,-3.7805
1595878857,0.9058,-0.3803,-0.2935,157.3781,3.5976,1.0976
1595878857,0.9105,-0.3653,-0.2962,158.3537,8.8415,6.3415
1595878857,0.8851,-0.3491,-0.2809,158.7805,16.0976,11.2805
1595878857,0.7980,-0.4213,-0.2051,155.4268,61.7683,50.0610
1595878857,0.8533,-0.4399,-0.1559,152.9878,62.8659,64.2683
1595878857,0.8199,-0.4219,-0.1351,152.0122,72.1951,71.8902
1595878857,0.7687,-0.4176,-0.0997,148.6585,79.7561,78.1707
1595878857,0.7162,-0.4240,-0.0684,144.3902,81.2195,83.6585
1595878857,0.7006,-0.4330,-0.0472,140.2439,75.6707,90.0000
1595878857,0.6975,-0.4632,-0.0140,134.3902,67.7439,97.1951
1595878857,0.7340,-0.5262,0.0443,127.8049,55.6707,101.9512
1595878857,0.7915,-0.5720,0.1079,125.4268,46.0366,103.1098
1595878857,0.8350,-0.5979,0.1616,126.4024,46.5854,104.4512
1595878857,0.8550,-0.6016,0.1899,127.1951,54.4512,106.5854
1595878857,0.8767,-0.5894,0.1841,128.2927,65.1829,106.7073
1595878857,0.8862,-0.5695,0.1780,128.5366,76.4024,106.2805
1595878857,0.8304,-0.5883,0.1858,125.5488,82.8659,106.5854
1595878857,0.7494,-0.6296,0.1997,119.7561,81.8293,108.1098
1595878857,0.7070,-0.6373,0.2291,115.3659,76.0366,110.4268
1595878857,0.6378,-0.6282,0.2567,111.1585,67.0732,112.2561
1595878857,0.5815,-0.6284,0.2639,104.6341,52.5000,112.6220
1595878857,0.5502,-0.6191,0.2558,99.8171,35.3049,113.3537
1595878857,0.5261,-0.6140,0.2393,96.9512,19.5732,114.5122
1595878857,0.5199,-0.6227,0.2185,93.1707,6.4634,115.7317
1595878857,0.5605,-0.6348,0.2188,90.4878,-1.2195,117.5000
1595878857,0.6382,-0.6705,0.2422,88.5976,-1.0366,120.9756
1595878857,0.6584,-0.7141,0.2432,85.7317,6.7683,123.1707
1595878857,0.6070,-0.7275,0.2331,81.3415,17.0122,122.7439
1595878857,0.5272,-0.7205,0.2390,75.6098,21.4024,124.3293
1595878857,0.4381,-0.7223,0.2468,68.3537,16.9512,125.3049
1595878857,0.3774,-0.7167,0.2579,61.4634,5.3659,126.0366
1595878857,0.3564,-0.7026,0.2874,57.1341,-11.7073,127.2561
1595878857,0.3469,-0.7126,0.3129,52.9268,-28.4756,127.6829
1595878857,0.4040,-0.8015,0.3629,48.1098,-40.9756,128.7805
1595878857,0.5145,-0.8941,0.4180,44.7561,-52.3171,129.4512
1595878857,0.5586,-0.8832,0.4260,47.8659,-61.2195,128.7195
1595878857,0.5023,-0.8457,0.4197,48.6585,-65.8537,127.8049
1595878857,0.4105,-0.8349,0.3934,43.8415,-69.7561,125.6098
1595878857,0.3634,-0.8362,0.3880,40.1220,-77.6220,123.5366
1595878857,0.3569,-0.8295,0.4061,38.7195,-92.3781,123.4756
1595878857,0.3789,-0.8173,0.4146,38.0488,-108.2317,122.8049
1595878857,0.4401,-0.8279,0.4224,35.4268,-119.6951,121.2805
1595878857,0.4918,-0.8207,0.4317,33.1098,-126.5244,119.2683
1595878857,0.5175,-0.8292,0.4571,31.2195,-128.1707,116.3415
1595878857,0.5352,-0.8430,0.4786,29.6951,-125.8537,114.3293
1595878857,0.5439,-0.8333,0.4796,30.6707,-122.6220,112.9878
1595878857,0.5048,-0.8121,0.4792,30.6098,-118.9024,109.6951
1595878857,0.4498,-0.7625,0.4696,28.7195,-115.3049,107.4390
1595878857,0.4235,-0.7535,0.4497,26.7683,-113.2927,106.8902
1595878857,0.4236,-0.7679,0.4265,23.7805,-111.7073,104.4512
1595878857,0.4211,-0.7786,0.4357,19.8780,-111.7683,101.3415
1595878857,0.4649,-0.8030,0.4706,16.9512,-114.2683,98.5976
1595878857,0.5134,-0.8158,0.5030,16.7683,-115.4268,96.2805
1595878857,0.5227,-0.8278,0.5270,15.7317,-113.1707,92.2561
1595878857,0.5295,-0.8271,0.5485,13.2927,-108.2927,88.2317
1595878857,0.5609,-0.8419,0.5447,12.7439,-102.4390,85.8537
1595878857,0.5757,-0.8963,0.5328,10.1829,-95.8537,83.5976
1595878858,0.5684,-0.9426,0.5472,7.0732,-89.6341,81.8293
1595878858,0.5703,-0.9749,0.5612,5.9146,-84.5122,82.6220
1595878858,0.5739,-1.0029,0.5616,4.8171,-81.0976,85.3049
1595878858,0.5701,-1.0186,0.5545,4.0244,-79.8171,85.0610
1595878858,0.5759,-1.0215,0.5372,5.0000,-80.4878,82.9268
1595878858,0.5911,-1.0161,0.5051,7.3171,-82.2561,80.1220
1595878858,0.6182,-1.0050,0.4675,9.9390,-82.6220,76.0366
1595878858,0.6513,-0.9985,0.4497,11.7683,-80.2439,72.4390
1595878858,0.6616,-0.9894,0.4322,13.9024,-75.1220,69.1463
1595878858,0.6370,-0.9611,0.4117,15.7927,-67.8659,65.1220
1595878858,0.6400,-0.9341,0.4105,16.0976,-60.9756,61.5854
1595878858,0.6325,-0.8983,0.4067,17.8049,-53.4756,57.5610
1595878858,0.5548,-0.8355,0.3983,21.7683,-44.4512,52.1951
1595878858,0.5125,-0.8046,0.3950,23.6585,-35.3049,47.9878
1595878858,0.5112,-0.7975,0.3876,24.2683,-30.1220,45.0000
1595878858,0.4938,-0.7552,0.3848,25.4268,-33.2927,36.8902
1595878858,0.4929,-0.7335,0.3868,25.8537,-38.5366,32.1341
1595878858,0.4521,-0.6893,0.3964,25.1220,-43.5976,27.6220
1595878858,0.4520,-0.7040,0.3829,25.0610,-42.8659,22.9268
1595878858,0.4420,-0.6694,0.3866,33.1098,-28.5976,14.4512
1595878858,0.4979,-0.7671,0.4381,35.3659,-20.9756,3.7195
1595878858,0.5234,-0.7499,0.4415,37.5610,-18.6585,5.3049
1595878858,0.4004,-0.7231,0.4630,43.5976,9.5122,3.5976
1595878858,0.3017,-0.6649,0.5223,35.1220,-7.6220,5.1220
1595878858,0.3625,-0.6618,0.5240,30.6707,-18.4756,6.9512
1595878858,0.5028,-0.6790,0.6116,23.1707,-25.7317,3.3537
1595878858,0.4601,-0.6263,0.6222,24.4512,-3.4146,-5.8537
1595878858,0.2938,-0.6114,0.5576,9.2073,18.2317,-18.2317
1595878858,0.2643,-0.6920,0.6706,-2.1341,54.8171,-22.9268
1595878858,0.3294,-0.6945,0.7246,5.1220,34.0854,-17.0122
1595878858,0.3570,-0.8444,0.9233,16.8293,51.2195,-6.5854
1595878858,0.3235,-0.9039,0.9659,22.9268,43.5366,-1.5244
1595878858,0.3509,-0.8716,0.7657,8.5366,11.0366,2.5610
1595878858,0.4141,-0.7893,0.6401,1.7683,2.4390,-8.5976
1595878858,0.2275,-0.6567,0.6552,-2.2561,61.0366,-32.7439
1595878858,0.2156,-0.6204,0.6647,2.1341,66.1585,-40.1829
1595878858,0.0737,-0.6030,0.7204,9.5732,73.9024,-54.3293
1595878858,0.0947,-0.6107,0.7056,12.5000,64.5732,-53.2927
1595878858,0.1185,-0.6118,0.7041,15.5488,52.6220,-51.2195
1595878858,0.2610,-0.6395,0.7192,21.2805,23.7805,-42.5610
1595878858,0.3163,-0.6522,0.7297,21.6463,16.5854,-41.6463
1595878858,0.3500,-0.6492,0.7284,21.0976,9.6341,-42.4390
1595878859,0.3730,-0.6516,0.7133,19.9390,1.8293,-44.5122
1595878859,0.4218,-0.6663,0.6958,17.3171,-6.0366,-47.5610
1595878859,0.3896,-0.6095,0.6800,4.4512,-11.0976,-60.9146
1595878859,0.3710,-0.4949,0.4946,-26.4634,-47.3171,-73.3537
1595878859,0.3930,-0.5151,0.5074,-34.1463,-55.4878,-74.6951
1595878859,0.4331,-0.5390,0.4921,-55.9146,-54.8171,-75.8537
1595878859,0.4254,-0.5306,0.4727,-60.4878,-58.6585,-73.8415
1595878859,0.4106,-0.5236,0.4401,-64.3902,-62.6220,-72.3781
1595878859,0.4391,-0.5257,0.4212,-68.4146,-68.7195,-69.9390
1595878859,0.4599,-0.5213,0.3992,-70.7317,-75.3659,-66.8293
1595878859,0.4543,-0.5103,0.3860,-73.1707,-77.9268,-63.7805
1595878859,0.5162,-0.5140,0.3345,-79.8781,-79.6341,-57.3781
1595878859,0.5377,-0.5182,0.2856,-85.6707,-78.9634,-50.4878
1595878859,0.5793,-0.5322,0.2747,-87.6220,-80.1220,-46.8293
1595878859,0.5856,-0.5437,0.2574,-87.8659,-75.7927,-42.2561
1595878859,0.5799,-0.5649,0.2405,-90.0000,-68.1707,-38.1707
1595878859,0.6001,-0.5793,0.2308,-91.7073,-63.5976,-35.1220
1595878859,0.6081,-0.6473,0.2495,-90.8537,-53.2317,-25.1829
1595878859,0.5981,-0.6392,0.1771,-85.4268,-40.2439,-20.5488
1595878859,0.5604,-0.6542,0.1522,-84.0244,-33.6585,-18.5976
1595878859,0.5708,-0.6879,0.1476,-83.2317,-30.1829,-16.0366
1595878859,0.5684,-0.7050,0.1332,-81.7073,-25.9146,-13.3537
1595878859,0.5582,-0.7239,0.1253,-80.8537,-19.1463,-10.9756
1595878859,0.5492,-0.7473,0.1279,-79.5122,-11.5854,-8.4146
1595878859,0.5585,-0.7682,0.1093,-77.1951,-3.9024,-5.9146
1595878859,0.5662,-0.7881,0.0844,-76.0366,3.6585,-3.2927
1595878859,0.5430,-0.8256,0.1124,-76.8293,8.2927,-1.3415
1595878859,0.5137,-0.8517,0.1170,-76.8902,8.7805,1.8902
1595878859,0.4943,-0.8890,0.1047,-76.8902,7.3780,5.5488
1595878859,0.5195,-0.9302,0.1087,-77.1951,4.9390,8.7805
1595878859,0.5186,-0.9484,0.1016,-75.3659,1.8293,12.6220
1595878859,0.4627,-0.9434,0.1009,-72.8049,-0.3049,16.0976
1595878859,0.4484,-0.9376,0.1264,-70.9146,-4.0854,20.3659
1595878859,0.4551,-0.9104,0.1078,-67.5000,-8.9634,24.4512
1595878859,0.4685,-0.8947,0.0572,-65.6707,-11.5244,27.3780
1595878859,0.5021,-0.9059,0.0367,-66.0976,-12.7439,30.1220
1595878859,0.5024,-0.9319,0.0917,-65.4268,-12.6829,32.4390
1595878859,0.4884,-0.9431,0.1288,-62.1951,-9.6951,34.4512
1595878859,0.4408,-0.9377,0.1330,-58.4756,-5.1829,34.6951
1595878859,0.4211,-0.9309,0.1205,-56.8902,-4.5732,33.4756
1595878859,0.4485,-0.9318,0.1041,-56.1585,-9.0244,32.1951
1595878859,0.4555,-0.9256,0.0986,-54.5732,-11.7073,30.5488
1595878859,0.3923,-0.9147,0.0999,-52.2561,-7.9878,30.3049
1595878859,0.3577,-0.9229,0.0815,-50.9146,-4.7561,30.6707
1595878859,0.4086,-0.9514,0.0501,-49.8171,-7.6829,30.0610
1595878859,0.4715,-0.9556,0.0043,-47.5000,-11.7683,29.0244
1595878859,0.4928,-0.9700,-0.0192,-44.3902,-9.7561,29.8171
1595878859,0.4448,-0.9755,0.0055,-43.2317,-4.1463,31.2195
1595878859,0.4015,-0.9688,0.0441,-40.8537,0.4268,31.7073
1595878859,0.3843,-0.9705,0.0609,-38.0488,2.1341,31.2195
1595878859,0.3570,-0.9486,0.0594,-36.5854,1.5854,29.8780
1595878859,0.3241,-0.9271,0.0500,-34.6341,-0.2439,28.4146
1595878859,0.3766,-0.9344,0.0248,-33.9634,-4.0854,27.6829
1595878859,0.4208,-0.9460,-0.0126,-32.8049,-6.7683,26.9512
1595878859,0.4000,-0.9619,-0.0054,-32.6829,-5.0000,26.5854
1595878859,0.4164,-0.9797,0.0217,-32.0122,-2.9878,27.4390
1595878859,0.4399,-0.9763,0.0242,-29.2073,-0.5488,27.3780
1595878859,0.3588,-0.9673,0.0034,-27.1341,2.5610,25.9756
1595878859,0.3589,-0.9701,0.0172,-27.6220,4.1463,25.3659
1595878859,0.3997,-0.9589,0.0058,-26.6463,2.0122,26.4634
1595878859,0.3636,-0.9717,-0.0102,-26.1585,3.2317,24.6341
1595878859,0.3583,-0.9724,-0.0077,-25.5488,7.6220,23.3537
1595878859,0.3882,-0.9814,-0.0201,-22.1951,9.6951,24.2683
1595878859,0.3691,-0.9877,-0.0148,-21.4634,10.6098,24.5732
1595878859,0.3225,-0.9761,-0.0095,-20.2439,11.5244,23.5976
1595878859,0.3333,-0.9923,0.0099,-19.5122,10.7317,23.9634
1595878859,0.3621,-0.9893,0.0180,-18.4146,8.4146,23.4756
1595878859,0.3564,-0.9775,-0.0085,-16.1585,8.1098,22.9268
1595878859,0.3324,-0.9877,-0.0128,-16.8293,9.1463,23.8415
1595878859,0.3371,-0.9701,-0.0154,-16.5244,9.1463,24.0244
1595878859,0.3369,-0.9496,-0.0376,-14.6951,8.2317,24.1463
1595878859,0.3463,-0.9406,-0.0621,-15.3049,5.9756,24.0854
1595878859,0.2870,-0.9216,-0.0211,-15.2439,2.5610,23.6585
1595878859,0.3036,-0.9274,-0.0007,-13.4756,-2.5000,25.2439
1595878859,0.3456,-0.9405,-0.0229,-12.9878,-2.7439,27.8049
1595878859,0.3276,-0.9481,-0.0367,-13.4146,-2.0732,27.4390
1595878859,0.3415,-0.9553,-0.0341,-13.0488,-4.2073,28.1098
1595878859,0.3615,-0.9506,-0.0380,-12.5610,-5.8537,29.4512
1595878859,0.3676,-0.9363,-0.0596,-12.6220,-5.5488,29.6341
1595878859,0.3754,-0.9340,-0.0755,-13.5976,-6.0976,29.3293
1595878859,0.3633,-0.9373,-0.0555,-14.7561,-10.3049,28.4146
1595878859,0.3694,-0.9373,-0.0299,-13.9634,-13.5976,28.1098
1595878859,0.3602,-0.9381,-0.0293,-12.1341,-12.3780,27.3171
1595878859,0.3398,-0.9388,-0.0258,-11.4024,-10.8537,25.7317
1595878859,0.3309,-0.9374,-0.0048,-9.8780,-9.8780,25.1829
1595878859,0.3290,-0.9315,-0.0126,-7.7439,-6.4024,25.1220
1595878859,0.3219,-0.9332,-0.0224,-7.3780,-3.6585,25.4268
1595878859,0.3585,-0.9539,-0.0370,-8.2317,-5.1220,25.4268
1595878859,0.3691,-0.9770,-0.0541,-8.4756,-6.0366,25.1829
1595878859,0.3676,-0.9981,-0.0404,-9.3293,-6.4024,24.6951
1595878859,0.3864,-0.9971,-0.0311,-8.1707,-6.6463,23.5366
1595878859,0.3549,-0.9771,-0.0441,-5.5488,-3.9634,22.3171
1595878859,0.3062,-0.9698,-0.0347,-4.9390,-2.8049,20.5488
1595878859,0.3158,-0.9717,-0.0223,-4.7561,-5.2439,19.1463
1595878859,0.3168,-0.9603,-0.0366,-3.4756,-7.9878,17.9878
1595878859,0.3163,-0.9489,-0.0577,-3.5366,-8.4756,16.7683
1595878859,0.3204,-0.9533,-0.0639,-4.3293,-7.7439,15.9756
1595878859,0.3063,-0.9608,-0.0455,-5.9756,-5.4878,15.3049
1595878859,0.2684,-0.9719,-0.0048,-5.8537,-1.8293,15.3659
1595878859,0.3425,-0.9987,-0.0305,-5.9756,1.7073,13.7805
1595878859,0.3639,-1.0419,-0.0272,-8.8415,-3.1707,10.5488
1595878859,0.2649,-0.9434,-0.0037,-8.7195,-14.5732,2.9878
1595878859,0.3234,-0.9235,-0.0919,-6.5244,-16.5244,5.0610
1595878859,0.4471,-0.9816,-0.1705,-10.6707,-11.8902,4.6341
1595878859,0.4683,-0.9631,-0.1649,-12.9268,-12.5610,1.7073
1595878859,0.4073,-0.9727,-0.0936,-13.2317,-10.4268,4.3293
1595878859,0.3552,-0.9996,-0.0193,-12.4390,-0.3659,6.4024
1595878859,0.3088,-0.9941,0.0086,-9.8780,5.9756,5.6707
1595878859,0.3473,-0.9968,-0.0186,-7.2561,6.7683,5.5488
1595878859,0.3807,-1.0005,-0.0346,-5.3049,8.1707,6.0366
1595878859,0.3638,-0.9836,-0.0518,-2.5610,13.1707,6.7073
1595878859,0.3248,-0.9661,-0.0685,-0.6098,21.7073,8.1098
1595878859,0.3143,-0.9597,-0.0685,-0.9756,25.6707,7.9268
1595878859,0.3612,-0.9579,-0.0814,-1.8902,23.4146,6.2195
1595878859,0.3698,-0.9615,-0.0871,-2.5610,23.7805,4.3902
1595878859,0.3510,-0.9681,-0.0724,-2.1341,30.9146,2.9878
1595878859,0.3584,-0.9662,-0.0334,-0.3049,38.2927,2.8659
1595878859,0.3767,-0.9608,0.0002,1.3415,41.2805,2.6829
1595878859,0.3387,-0.9965,-0.0148,3.4756,45.6707,-0.3049
1595878859,0.2969,-1.0165,0.0278,4.3293,53.6585,-3.9024
1595878860,0.3105,-1.0323,0.0192,6.6463,59.0854,-3.2317
1595878860,0.2864,-1.0019,-0.0271,7.1951,56.6463,-2.6220
1595878860,0.3186,-0.9517,-0.0459,6.5854,45.1829,-5.5488
1595878860,0.3076,-0.9601,-0.0379,5.1829,38.7805,-8.7195
1595878860,0.3289,-0.9623,-0.0419,3.7195,36.7073,-7.7439
1595878860,0.3267,-0.9169,-0.0334,6.3415,39.9390,-4.8780
1595878860,0.2037,-0.9160,-0.0082,5.7317,43.4146,-4.3902
1595878860,0.2328,-0.9626,0.0181,3.8415,35.4268,-7.8659
1595878860,0.2117,-0.9325,0.0466,4.8171,22.5610,-8.5366
1595878860,0.2462,-0.9345,0.0294,5.2439,9.5732,-8.4756
1595878860,0.3809,-0.9619,-0.0364,4.0854,-1.9512,-8.2927
1595878860,0.4695,-0.9535,-0.0926,3.6585,-6.6463,-7.4390
1595878860,0.4838,-0.9348,-0.1490,4.8780,3.2317,-6.2805
1595878860,0.5773,-0.9302,-0.1346,4.7561,16.8293,-3.9634
1595878860,0.6899,-0.9797,-0.1295,5.0000,32.1341,-4.9390
1595878860,0.6005,-0.9828,-0.0912,6.2805,57.5610,-7.1951
1595878860,0.4528,-0.9066,-0.0245,11.0366,88.2927,-7.9268
1595878860,0.3654,-0.8933,0.0328,16.5244,112.9268,-9.3902
1595878860,0.3461,-0.8843,0.0751,18.4146,125.9756,-9.6951
1595878860,0.2987,-0.8863,0.1117,21.5854,128.7805,-11.1585
1595878860,0.4107,-0.8834,0.1115,21.8902,126.3415,-8.2927
1595878860,0.3365,-0.8929,0.1506,19.0854,120.8537,-3.0488
1595878860,-0.0717,-0.6763,0.0998,12.2561,89.6951,-7.3780
1595878860,-0.1360,-0.6675,0.0413,9.5732,39.6341,-6.0976
1595878860,0.3332,-0.8627,0.0839,2.8049,-0.3659,1.2195
1595878860,0.6172,-0.8586,0.2490,4.3293,-17.4390,6.5244
1595878860,0.5445,-0.8425,0.2680,12.6829,7.3171,7.4390
1595878860,0.3561,-0.8333,0.1857,16.5854,53.4146,10.9146
1595878860,0.2877,-0.8721,0.1477,18.2927,81.5854,11.9512
1595878860,0.3497,-0.9001,0.1276,20.1220,87.5610,11.2195
1595878860,0.2931,-0.8837,0.0814,20.9756,82.5610,11.0366
1595878860,0.2092,-0.9175,0.0721,17.2561,79.8781,9.8780
1595878860,0.2350,-0.9630,0.1049,11.4024,75.5488,11.2805
1595878860,0.2262,-0.9169,0.0815,9.4512,67.0122,11.7073
1595878860,0.1808,-0.8972,0.0438,7.4390,62.3171,12.8049
1595878860,0.2645,-0.9293,0.0838,3.3537,55.9146,15.2439
1595878860,0.3458,-0.9405,0.0938,6.2195,47.7439,17.9268
1595878860,0.3553,-0.9262,0.0887,12.2561,49.6951,20.4878
1595878860,0.3973,-0.9387,0.1243,14.4512,60.0610,21.9512
1595878860,0.3931,-0.9474,0.1306,15.2439,69.4512,19.5122
1595878860,0.3562,-0.9688,0.1097,14.2073,74.3902,14.1463
1595878860,0.3204,-0.9446,0.0861,12.1341,71.3415,10.2439
1595878860,0.2427,-0.9141,0.0566,9.5122,59.9390,7.0732
1595878860,0.1773,-0.9019,0.0926,5.0610,46.0366,4.1463
1595878860,0.2322,-0.9235,0.1580,4.2073,34.7561,4.5122
1595878860,0.2888,-0.9506,0.2099,7.3780,35.0610,7.3780
1595878860,0.2388,-0.9440,0.2211,10.4878,45.7317,10.3049
1595878860,0.2277,-0.9299,0.2090,12.7439,58.9634,12.9878
1595878860,0.2868,-0.9352,0.2045,13.8415,64.2073,14.3902
1595878860,0.2693,-0.9109,0.1865,13.9634,60.3049,13.8415
1595878860,0.1890,-0.8987,0.1797,12.1341,55.8537,12.8659
1595878860,0.1785,-0.8986,0.1664,8.7805,50.6098,12.0732
1595878860,0.2375,-0.8964,0.1752,6.6463,42.4390,12.0732
1595878860,0.2555,-0.9278,0.1809,6.8293,38.7805,13.5366
1595878860,0.2617,-0.9512,0.2089,7.3780,40.6707,15.1829
1595878860,0.2946,-0.9242,0.2352,9.1463,40.8537,16.7073
1595878860,0.2997,-0.9115,0.2146,10.1829,39.5732,15.9756
1595878860,0.2841,-0.9138,0.2016,8.5366,36.4634,12.9878
1595878860,0.2778,-0.9146,0.2206,7.4390,29.6341,11.0976
1595878860,0.2579,-0.9120,0.1978,6.8902,22.2561,8.9634
1595878860,0.2309,-0.8937,0.1766,5.7317,19.2073,6.8293
1595878860,0.2003,-0.8632,0.1801,6.4024,22.1341,7.1951
1595878860,0.1698,-0.8711,0.1857,6.8902,28.8415,9.0244
1595878860,0.1880,-0.8904,0.2132,6.4024,32.4390,10.3659
1595878860,0.2170,-0.8976,0.2338,7.3171,32.2561,12.8049
1595878860,0.2559,-0.9342,0.2383,8.5976,31.8293,14.1463
1595878860,0.2733,-0.9623,0.2603,8.6585,28.2927,13.1098
1595878860,0.2522,-0.9556,0.2558,10.0610,23.5366,11.7073
1595878860,0.2336,-0.9453,0.2384,11.2805,20.8537,10.4268
1595878860,0.2129,-0.9363,0.2208,11.7073,18.7805,8.5366
1595878860,0.2002,-0.9327,0.2083,11.2805,16.4024,6.9512
1595878860,0.2013,-0.9379,0.2034,11.2195,14.0244,6.4634
1595878860,0.1904,-0.9504,0.1909,11.6463,14.2683,7.0732
1595878860,0.1909,-0.9593,0.2011,13.0488,17.4390,8.1707
1595878860,0.1846,-0.9662,0.1942,14.8780,21.8293,9.5122
1595878860,0.1650,-0.9814,0.1962,15.5488,27.2561,10.4878
1595878860,0.1680,-0.9985,0.2129,15.0000,30.2439,11.7683
1595878860,0.1791,-1.0060,0.2307,15.9756,29.8780,12.4390
1595878860,0.1822,-0.9918,0.2491,17.7439,28.9634,12.3780
1595878860,0.1695,-0.9871,0.2401,19.3293,29.8171,12.2561
1595878860,0.1423,-1.0233,0.2355,19.2073,30.5488,11.2195
1595878860,0.1341,-1.0780,0.3144,19.3293,30.3049,10.4878
1595878860,0.1137,-1.0597,0.3262,23.1707,33.9634,12.0122
1595878860,0.0637,-1.0681,0.2439,24.8780,40.3049,12.5610
1595878860,0.0217,-1.0594,0.2136,22.3780,38.5366,10.0000
1595878860,0.0518,-1.0353,0.2369,22.0122,30.7317,9.4512
1595878860,0.1177,-1.0503,0.2559,21.2195,18.9634,8.1098
1595878860,0.1278,-1.0289,0.2454,21.1585,8.4756,4.2683
1595878860,0.1530,-1.0377,0.2362,19.5732,4.4512,2.3171
1595878860,0.1630,-1.0461,0.2415,17.2561,2.0732,-0.1829
1595878860,0.1082,-1.0379,0.2459,16.8293,2.3171,-1.2195
1595878860,0.0660,-1.0423,0.2281,16.5244,4.6341,-0.9756
1595878860,0.0573,-1.0236,0.2121,16.7683,5.1220,-0.9146
1595878860,0.0610,-1.0034,0.2039,17.4390,3.4146,-1.1585
1595878860,0.0652,-0.9816,0.2003,17.6829,1.3415,-0.9146
1595878860,0.0704,-0.9545,0.1917,17.6220,-0.3659,0.1220
1595878860,0.0846,-0.9382,0.1974,17.3171,-0.3049,1.7073
1595878860,0.1166,-0.9402,0.1891,17.0732,2.0122,3.2927
1595878860,0.1197,-0.9427,0.1495,15.6098,6.2195,4.3293
1595878860,0.1091,-0.9299,0.1320,13.2927,12.4390,6.4024
1595878860,0.0756,-0.9094,0.1373,12.8659,21.4024,9.7561
1595878861,0.0674,-0.9117,0.1433,13.2927,32.6829,13.1707
1595878861,0.1063,-0.9294,0.1425,12.1951,41.4634,15.5488
1595878861,0.1147,-0.9290,0.1438,11.2805,47.8049,17.1951
1595878861,0.0957,-0.9089,0.1362,10.8537,54.5732,19.5732
1595878861,0.0868,-0.9044,0.1317,10.4268,61.3415,22.1951
1595878861,0.0888,-0.9108,0.1335,9.1463,66.0976,23.8415
1595878861,0.1001,-0.9127,0.1360,7.8049,68.7805,25.4878
1595878861,0.1207,-0.9106,0.1223,6.5854,71.0366,26.7073
1595878861,0.1296,-0.9197,0.1191,3.9634,73.7195,27.3171
1595878861,0.1099,-0.9229,0.1230,1.7073,77.0122,27.6220
1595878861,0.0994,-0.9147,0.1166,1.1585,80.9756,28.3537
1595878861,0.1135,-0.9077,0.1011,0.3659,85.0610,28.9634
1595878861,0.0980,-0.8973,0.0916,-0.3049,89.0244,29.1463
1595878861,0.0691,-0.8846,0.0984,-0.3659,93.2317,29.6951
1595878861,0.0758,-0.8983,0.1075,-0.4268,95.0610,30.3659
1595878861,0.0945,-0.9172,0.1126,-0.6707,95.3659,30.6098
1595878861,0.0759,-0.9102,0.1252,-0.7927,97.1341,31.0366
1595878861,0.0495,-0.9091,0.1339,-0.1829,100.1220,31.4024
1595878861,0.0541,-0.9383,0.1340,-0.1829,101.3415,31.1585
1595878861,0.0694,-0.9635,0.1389,-0.5488,99.5732,30.4878
1595878861,0.0601,-0.9835,0.1424,-0.4268,97.9268,29.6951
1595878861,0.0560,-1.0078,0.1461,-0.7927,97.0732,28.5366
1595878861,0.0440,-0.9933,0.1356,-2.2561,95.2439,27.6220
1595878861,0.0155,-0.9684,0.1198,-5.0610,92.4390,25.4268
1595878861,0.0122,-0.9481,0.1042,-7.8049,87.6220,22.0732
1595878861,0.0330,-0.9178,0.1014,-11.4634,80.8537,20.6098
1595878861,0.0595,-0.8954,0.1162,-15.8537,76.6463,19.3902
1595878861,0.0722,-0.8605,0.1359,-21.3415,76.9512,18.2927
1595878861,0.0426,-0.8335,0.1655,-26.4634,80.5488,16.8902
1595878861,0.0209,-0.8224,0.1741,-30.8537,84.2683,13.3537
1595878861,0.0227,-0.8215,0.1832,-35.1829,85.8537,10.7317
1595878861,0.0410,-0.8427,0.2031,-38.8415,87.3171,8.9634
1595878861,0.0413,-0.8732,0.2283,-42.1951,91.9512,7.4390
1595878861,0.0471,-0.9039,0.2355,-45.1220,99.6341,5.6098
1595878861,0.0285,-0.9483,0.2187,-47.2561,109.6341,2.7439
1595878861,0.0159,-0.9981,0.2346,-49.8171,116.0366,0.4268
1595878861,-0.0281,-1.0186,0.2555,-49.6951,119.2683,-1.4024
1595878861,-0.0759,-1.0112,0.2819,-47.4390,122.4390,-2.8659
1595878861,-0.1056,-1.0015,0.3002,-45.2439,125.6707,-4.2073
1595878861,-0.1102,-1.0033,0.3121,-44.6951,127.2561,-7.0732
1595878861,-0.1075,-1.0101,0.3463,-42.0732,125.7317,-12.9878
1595878861,-0.1484,-0.9769,0.3259,-37.3780,124.6951,-19.5732
1595878861,-0.1646,-0.9587,0.2747,-35.8537,126.1585,-23.3537
1595878861,-0.1785,-0.9791,0.2747,-37.1951,121.4024,-29.1463
1595878861,-0.2173,-0.9788,0.2944,-36.7073,109.2683,-35.6098
1595878861,-0.2624,-0.9384,0.2944,-34.3293,97.2561,-37.5000
1595878861,-0.2595,-0.8984,0.2839,-32.9878,85.9146,-38.5976
1595878861,-0.1832,-0.9351,0.3011,-33.9634,72.9268,-42.8049
1595878861,-0.1713,-0.9425,0.3436,-34.1463,58.9024,-46.8902
1595878861,-0.2053,-0.8892,0.3305,-29.8171,48.8415,-47.3171
1595878861,-0.2149,-0.8782,0.3158,-27.4390,42.6220,-47.2561
1595878861,-0.1951,-0.8911,0.3068,-26.2195,32.8049,-47.6829
1595878861,-0.1693,-0.9113,0.2758,-23.3537,23.4756,-48.1098
1595878861,-0.1406,-0.9008,0.2985,-19.3902,16.5854,-46.8293
1595878861,-0.1626,-0.8646,0.3268,-16.1585,13.8415,-44.3293
1595878861,-0.1597,-0.8741,0.3297,-12.3171,21.2805,-45.4268
1595878861,-0.1539,-0.8871,0.3199,-8.9024,32.6829,-48.5366
1595878861,-0.1677,-0.8805,0.3140,-6.5244,43.5366,-49.2073
1595878861,-0.1597,-0.8760,0.2959,-4.0244,50.6098,-49.3293
1595878861,-0.1205,-0.8811,0.2787,-1.6463,54.4512,-49.9390
1595878861,-0.1025,-0.9326,0.2902,-2.3780,54.5732,-51.0366
1595878861,-0.0957,-0.9608,0.3245,-2.3780,49.0854,-50.9756
1595878861,-0.1031,-0.9583,0.3511,0.6707,44.2683,-47.3781
1595878861,-0.1008,-0.9553,0.3503,4.7561,43.9634,-45.0610
1595878861,-0.0989,-0.9484,0.3292,7.1341,45.6098,-44.3902
1595878861,-0.0923,-0.9312,0.3174,9.5122,47.5610,-45.2439
1595878861,-0.0826,-0.9078,0.3022,13.1707,49.8171,-45.6707
1595878861,-0.0666,-0.8990,0.2950,16.1585,52.5610,-45.1829
1595878861,-0.0523,-0.8807,0.2651,18.9024,55.1220,-43.7805
1595878861,-0.0490,-0.8578,0.2188,20.5488,57.1951,-42.6829
1595878861,-0.0373,-0.8775,0.2141,19.1463,55.4268,-43.1707
1595878861,-0.0101,-0.8911,0.2383,17.1951,45.8537,-42.8659
1595878861,0.0089,-0.8763,0.2455,19.5732,36.4024,-39.6341
1595878861,-0.0112,-0.8669,0.2355,22.0732,34.2683,-35.5488
1595878861,-0.0320,-0.8539,0.2186,22.1341,35.7927,-33.2317
1595878861,-0.0179,-0.8415,0.2039,21.9512,36.4634,-31.8902
1595878861,0.0180,-0.8381,0.1969,22.3171,34.2073,-29.0854
1595878861,0.0374,-0.8308,0.1886,23.1098,32.1341,-25.7927
1595878861,0.0356,-0.8256,0.1855,23.5366,32.0122,-22.4390
1595878861,0.0419,-0.8397,0.1744,23.5976,31.8902,-19.1463
1595878861,0.0555,-0.8624,0.1552,23.2317,31.6463,-16.5854
1595878861,0.0671,-0.8826,0.1449,22.6829,31.7073,-14.5122
1595878862,0.0763,-0.8910,0.1425,22.0732,30.0610,-13.0488
1595878862,0.0966,-0.8987,0.1456,21.9512,27.8049,-11.5244
1595878862,0.1140,-0.9019,0.1462,22.1341,27.0732,-9.4512
1595878862,0.1209,-0.9047,0.1470,22.7439,27.5610,-7.9878
1595878862,0.1304,-0.9127,0.1436,22.8659,28.9634,-6.7683
1595878862,0.1499,-0.9108,0.1512,23.0488,30.6098,-5.7317
1595878862,0.1557,-0.8974,0.1649,24.0854,32.5610,-5.1829
1595878862,0.1405,-0.9073,0.1605,24.0854,35.3659,-5.2439
1595878862,0.1310,-0.9243,0.1599,22.7439,37.6220,-6.0976
1595878862,0.1221,-0.9237,0.1608,22.4390,37.0732,-6.7683
1595878862,0.1082,-0.9213,0.1594,22.0732,34.0244,-7.5000
1595878862,0.1066,-0.9214,0.1600,20.5488,29.2683,-9.4512
1595878862,0.1108,-0.9229,0.1625,18.9024,23.1098,-11.2195
1595878862,0.1121,-0.9309,0.1652,17.9268,16.2805,-12.0732
1595878862,0.1123,-0.9363,0.1658,16.9512,9.5732,-12.8659
1595878862,0.1116,-0.9319,0.1584,16.2195,2.9878,-13.3537
1595878862,0.1164,-0.9354,0.1549,14.9390,-3.9634,-14.2683
1595878862,0.1343,-0.9406,0.1611,12.9268,-11.7073,-15.3049
1595878862,0.1586,-0.9368,0.1630,11.7073,-18.0488,-16.4024
1595878862,0.1699,-0.9344,0.1653,10.5488,-21.2805,-17.9878
1595878862,0.1761,-0.9518,0.1680,8.5366,-21.8902,-19.1463
1595878862,0.1766,-0.9847,0.1724,7.1341,-21.0366,-19.8780
1595878862,0.1745,-1.0231,0.1719,5.9756,-18.5366,-20.1220
1595878862,0.1703,-1.0515,0.1794,4.2073,-15.8537,-20.0610
1595878862,0.1754,-1.0682,0.1859,3.1707,-14.3902,-20.0610
1595878862,0.1973,-1.0873,0.2051,2.3171,-12.7439,-19.8171
1595878862,0.1953,-1.0839,0.2275,1.7683,-11.2195,-18.7195
1595878862,0.1699,-1.0772,0.2372,0.4878,-9.4512,-18.2317
1595878862,0.1672,-1.0903,0.2352,-1.5244,-7.8049,-18.2927
1595878862,0.1902,-1.0946,0.2332,-3.7195,-8.4146,-16.7073
1595878862,0.2144,-1.0764,0.2341,-5.6098,-9.7561,-15.2439
1595878862,0.2264,-1.0711,0.2331,-7.0732,-9.1463,-15.6707
1595878862,0.2281,-1.0884,0.2297,-8.7195,-5.6707,-16.8293
1595878862,0.2272,-1.1088,0.2253,-9.5732,-0.5488,-18.4756
1595878862,0.2216,-1.1081,0.2318,-9.0854,5.1829,-20.6707
1595878862,0.2133,-1.0926,0.2417,-8.1098,11.0366,-22.9878
1595878862,0.2059,-1.0716,0.2523,-6.9512,16.2805,-25.1220
1595878862,0.1999,-1.0526,0.2625,-5.1220,20.6707,-27.4390
1595878862,0.1899,-1.0317,0.2779,-2.9268,24.4512,-29.6341
1595878862,0.1994,-1.0269,0.2877,0.3049,27.9268,-31.8902
1595878862,0.2091,-1.0175,0.2899,4.1463,31.4634,-34.8780
1595878862,0.1927,-1.0038,0.2848,8.6585,35.3049,-39.0244
1595878862,0.1706,-1.0101,0.2747,12.5000,39.6341,-43.4146
1595878862,0.1551,-1.0222,0.2588,16.3415,42.1951,-46.2195
1595878862,0.1448,-1.0303,0.2375,20.9756,42.6220,-48.3537
1595878862,0.1152,-1.0336,0.2334,25.4268,41.2805,-50.2439
1595878862,0.0856,-1.0250,0.2226,28.5976,38.1098,-50.7317
1595878862,0.0806,-1.0089,0.2191,31.7073,33.2317,-50.5488
1595878862,0.0847,-0.9928,0.2190,34.4512,25.7317,-51.5244
1595878862,0.0946,-0.9799,0.2170,36.6463,16.6463,-52.7439
1595878862,0.1115,-0.9803,0.2256,38.1707,8.2317,-52.6220
1595878862,0.1331,-1.0044,0.2251,40.0610,1.6463,-52.1341
1595878862,0.1463,-1.0287,0.2198,42.0732,-2.7439,-51.8293
1595878862,0.1700,-1.0305,0.2100,43.2927,-6.7073,-51.3415
1595878862,0.2023,-1.0045,0.1953,45.3049,-10.3659,-52.1951
1595878862,0.2292,-0.9805,0.1844,47.0122,-13.5976,-54.5732
1595878862,0.2551,-0.9688,0.1746,46.3415,-16.1585,-57.1341
1595878862,0.2718,-0.9424,0.1718,45.7317,-18.2317,-59.3902
1595878862,0.2820,-0.9291,0.1760,46.2195,-18.4146,-61.0366
1595878862,0.2867,-0.9347,0.1716,47.3171,-15.7927,-62.3781
1595878862,0.2761,-0.9320,0.1619,48.2317,-11.4024,-63.7195
1595878862,0.2589,-0.9068,0.1509,48.4146,-7.9268,-64.7561
1595878862,0.2457,-0.8706,0.1476,48.1707,-7.5000,-65.0000
1595878862,0.2435,-0.8363,0.1454,47.3781,-10.3049,-64.7561
1595878862,0.2611,-0.8098,0.1366,46.5244,-15.4878,-63.5366
1595878862,0.2890,-0.7930,0.1394,44.3293,-21.5854,-61.7073
1595878862,0.3478,-0.7871,0.1533,39.7561,-31.4634,-56.9512
1595878862,0.3745,-0.7940,0.1645,37.9878,-33.1098,-53.6585
1595878862,0.3828,-0.7822,0.1751,36.2805,-33.1098,-51.0976
1595878862,0.3861,-0.7643,0.1807,34.7561,-33.1098,-48.2927
1595878862,0.3992,-0.7463,0.1858,33.0488,-34.3902,-44.7561
1595878862,0.4230,-0.7284,0.1850,31.8293,-37.0122,-42.3780
1595878862,0.4419,-0.7159,0.1798,29.9390,-38.5976,-41.0366
1595878862,0.4579,-0.7056,0.1740,27.3780,-38.0488,-39.8171
1595878862,0.4720,-0.7130,0.1791,24.5122,-36.0366,-38.2927
1595878862,0.4792,-0.7350,0.1786,22.2561,-32.8659,-36.8902
1595878862,0.4774,-0.7559,0.1729,18.4756,-25.3049,-32.7439
1595878862,0.5100,-0.7366,0.1598,14.0244,-22.5610,-27.9268
1595878862,0.5875,-0.7375,0.1943,1.5244,-23.2317,-22.1341
1595878863,0.5981,-0.7301,0.2260,-0.3659,-20.4268,-19.0854
1595878863,0.5847,-0.7404,0.2524,-2.0732,-11.9512,-16.8902
1595878863,0.5591,-0.7475,0.2714,-2.1951,0.5488,-15.3049
1595878863,0.5359,-0.7344,0.2925,-3.5976,17.7439,-13.7805
1595878863,0.5294,-0.7041,0.2725,-3.5976,20.7317,-13.1707
1595878863,0.5294,-0.6979,0.2605,-5.8537,21.0976,-12.7439
1595878863,0.5466,-0.7162,0.2800,-9.4512,17.0122,-13.0488
1595878863,0.5645,-0.7290,0.3109,-10.7317,11.7683,-12.0732
1595878863,0.5588,-0.7263,0.3303,-10.4268,10.5488,-9.3902
1595878863,0.5386,-0.7341,0.3478,-10.0000,13.3537,-7.3171
1595878863,0.5378,-0.7505,0.3709,-10.4878,17.2561,-7.6220
1595878863,0.5363,-0.7705,0.3864,-6.4634,24.6341,-9.6951
1595878863,0.5430,-0.8015,0.3845,-6.2195,23.5366,-10.3049
1595878863,0.5508,-0.8478,0.4068,-5.0610,17.5610,-5.9146
1595878863,0.5571,-0.8734,0.4266,-4.6341,15.1829,-2.0122
1595878863,0.6533,-0.9872,0.4700,-2.7439,-2.6829,15.8537
1595878863,0.6785,-0.9349,0.4721,-3.8415,-5.0000,17.6220
1595878864,0.6105,-0.6946,0.4962,-3.2927,10.3659,-7.3171
1595878864,0.5742,-0.6650,0.4663,-3.7195,8.9634,-15.9146
1595878864,0.5563,-0.6118,0.4249,-1.0976,-0.0610,-31.0366
1595878865,0.5728,-0.5893,0.4103,2.1951,-1.5244,-40.7927
1595878865,0.5777,-0.5861,0.4044,4.0854,2.0122,-43.2927
1595878865,0.6205,-0.6088,0.3253,-2.5610,1.5244,-44.5122
1595878865,0.8008,-0.6792,0.3451,-11.4024,-8.2927,-40.3659
1595878865,0.6331,-0.5096,0.3043,-17.3171,49.2073,-55.4878
1595878865,0.4307,-0.6318,0.1966,-16.2195,34.6341,4.9390
1595878865,0.3463,-0.6651,0.1823,-14.8780,40.2439,14.9390
1595878865,0.3376,-0.8242,0.1814,-21.0366,28.6585,37.2561
1595878865,0.3248,-0.8747,0.2465,-20.3049,35.3049,47.8049
1595878865,0.2736,-1.1185,0.2500,-21.7683,66.8293,55.6098
1595878865,0.2268,-1.2332,0.2374,-27.0122,75.4878,52.5000
1595878865,0.1955,-1.2023,0.2361,-27.2561,71.8902,50.4878
1595878865,0.1712,-1.1745,0.2386,-27.6220,66.6463,47.9268
1595878865,0.1766,-1.1757,0.2445,-29.5122,59.5122,44.5732
1595878865,0.3638,-1.1824,0.3657,-31.5244,33.5976,30.3659
1595878865,0.1550,-1.0624,0.3842,-23.4146,50.6707,28.5976
1595878865,0.2651,-1.0126,0.4291,-16.0976,43.4756,8.5976
1595878865,0.3696,-0.9131,0.4231,-11.8293,-2.2561,-9.3293
1595878865,0.3853,-0.8158,0.4780,-5.6707,65.9146,-11.5244
1595878865,0.1176,-0.8774,0.5162,-2.1951,85.9146,-4.5122
1595878865,0.0323,-0.7864,0.6133,-4.3293,91.0366,-1.9512
1595878865,0.0288,-0.7271,0.4351,43.9634,-252.7439,-1.0366
1595878865,0.7180,-0.8162,0.0747,-38.0488,-305.1829,-36.2195
1595878865,0.6811,-0.7328,-0.0505,-10.6707,-223.2317,-37.1341
1595878865,0.8278,-0.6943,-0.1136,-8.9634,-227.8659,-30.2439
1595878865,0.7207,-0.6572,-0.1873,-5.8537,-171.0976,-23.4756
1595878865,0.8137,-0.6868,-0.2325,-8.5366,-169.3902,-25.1220
1595878865,0.8033,-0.6539,-0.2809,-7.9878,-152.2561,-27.0122
1595878865,0.7466,-0.6340,-0.3190,-6.8902,-141.4024,-24.4512
1595878865,0.9987,-0.6598,-0.3271,-16.9512,-143.9634,-19.5732
1595878865,0.7980,-0.5483,-0.3680,-7.5000,-90.3659,-17.3171
1595878865,0.7311,-0.5392,-0.3670,-24.7561,-47.2561,0.7317
1595878865,0.7512,-0.5590,-0.3450,-27.5610,-45.6098,2.8659
1595878865,0.8192,-0.5911,-0.3781,-25.1829,-42.3780,1.0976
1595878865,0.7641,-0.6151,-0.3298,-24.1463,-2.4390,9.6341
1595878865,0.7638,-0.6318,-0.3213,-23.2927,-9.6951,8.2317
1595878865,0.7369,-0.6077,-0.3265,-19.6341,-13.0488,5.0610
1595878865,0.5828,-0.5297,-0.5153,-8.8415,-24.8171,0.7927
1595878865,0.6100,-0.5170,-0.6264,-11.5244,-48.7195,-0.7927
1595878865,0.7051,-0.5353,-0.5948,-18.3537,-65.3659,0.8537
1595878866,0.5696,-0.5427,-0.6137,-13.5366,-57.0732,0.0610
1595878866,0.6694,-0.5256,-0.6043,-20.8537,-62.2561,-1.4024
1595878866,0.6794,-0.5239,-0.5013,-18.7195,-50.5488,1.2805
1595878866,0.5631,-0.4703,-0.6588,-9.2073,-32.5610,-3.5366
1595878866,0.5513,-0.4757,-0.6788,-7.8659,-31.3415,-5.1829
1595878866,0.6382,-0.4542,-0.6447,-7.8659,-39.3902,-6.0366
1595878866,0.6465,-0.4648,-0.5916,-4.7561,-26.3415,-6.0976
1595878866,0.6522,-0.4548,-0.5723,-3.7195,-22.7439,-6.1585
1595878866,0.5701,-0.4359,-0.6470,-0.2439,-10.7927,-2.2561
1595878866,0.5305,-0.4083,-0.6440,-1.1585,-5.2439,-0.1220
1595878866,0.5746,-0.4362,-0.6550,-1.5244,-1.2805,1.5854
1595878866,0.5818,-0.4521,-0.6017,-1.2195,-0.3659,1.8293
1595878866,0.5355,-0.4398,-0.5823,1.6463,1.5854,1.1585
1595878866,0.5015,-0.4406,-0.6031,4.0854,0.9756,2.2561
1595878866,0.5071,-0.4518,-0.6326,4.6341,-4.8171,2.0732
1595878866,0.5446,-0.4649,-0.6474,5.3659,-23.8415,0.9756
1595878866,0.5490,-0.4622,-0.6541,5.4878,-26.2195,1.8293
1595878866,0.5657,-0.4698,-0.6971,5.4878,-26.3415,2.8049
1595878866,0.5820,-0.4886,-0.7131,4.9390,-25.0610,4.2683
1595878866,0.5879,-0.5040,-0.7122,4.6341,-24.5732,5.1829
1595878866,0.6042,-0.5110,-0.6781,4.9390,-24.6951,5.7927
1595878866,0.5541,-0.5200,-0.6754,5.7317,-19.5122,7.2561
1595878866,0.4966,-0.5386,-0.6870,6.3415,-11.7073,9.0244
1595878866,0.4969,-0.5473,-0.6874,5.6098,-15.0610,8.7195
1595878866,0.5092,-0.5495,-0.7116,4.9390,-20.9756,8.4146
1595878866,0.5623,-0.5710,-0.7315,2.0122,-22.5610,8.2317
1595878866,0.5022,-0.5600,-0.6589,2.3171,-8.4756,11.7683
1595878866,0.4759,-0.5944,-0.6957,-0.1220,-4.5732,13.1098
1595878866,0.4669,-0.5922,-0.7166,-1.1585,-4.6951,12.3780
1595878866,0.4662,-0.5870,-0.7361,-2.6220,-6.0976,11.7683
1595878866,0.4746,-0.5811,-0.7563,-6.5854,-12.9268,10.3659
1595878866,0.4908,-0.5749,-0.7322,-10.6098,-15.6098,10.9146
1595878866,0.4793,-0.5856,-0.7009,-10.5488,-11.3415,11.8902
1595878866,0.4669,-0.5989,-0.6660,-9.6341,-5.9756,12.9268
1595878866,0.4329,-0.6091,-0.6257,-7.8049,-0.7927,13.4146
1595878866,0.3953,-0.5925,-0.6826,-0.9146,2.9268,13.4146
1595878866,0.4472,-0.6008,-0.7394,-3.7805,-7.0732,10.0610
1595878867,0.4739,-0.6367,-0.7461,-6.3415,-4.3902,9.4512
1595878867,0.4586,-0.6309,-0.7386,-6.2195,-1.0976,9.2683
1595878867,0.4012,-0.5986,-0.6813,-6.0366,5.9146,9.7561
1595878867,0.3748,-0.5930,-0.6880,-6.1585,5.6098,9.1463
1595878867,0.4172,-0.6248,-0.7251,-9.6341,-2.8659,7.9268
1595878867,0.3998,-0.6163,-0.7438,-9.2683,8.4146,12.1951
1595878867,0.3159,-0.5939,-0.7200,-12.3780,16.5854,17.1951
1595878867,0.3679,-0.6511,-0.6913,-18.7805,-8.7805,20.5488
1595878867,0.3400,-0.6474,-0.7084,-16.5244,-8.6585,15.4878
1595878867,0.3994,-0.6757,-0.7669,-19.4512,-20.8537,11.3415
1595878867,0.4121,-0.7042,-0.6476,-22.6220,-30.4268,0.0000
1595878867,0.4104,-0.6889,-0.6202,-17.3780,-31.0976,-6.6463
1595878867,0.4415,-0.6867,-0.6138,-11.3415,-31.0366,-10.1829
1595878867,0.4042,-0.6026,-0.7019,-1.5854,-34.8780,-25.7317
1595878867,0.3810,-0.5386,-0.7332,-0.7317,-41.1585,-25.6707
1595878867,0.3548,-0.6056,-0.7478,3.3537,-29.2683,-24.9390
1595878867,0.3601,-0.6068,-0.7392,5.9756,-27.9268,-24.6341
1595878867,0.3010,-0.5817,-0.7374,10.9146,-14.3902,-23.1707
1595878867,0.3605,-0.5936,-0.7278,14.9390,-3.0488,-21.0366
1595878867,0.3498,-0.5898,-0.7508,16.8902,4.0854,-21.5244
1595878867,0.3632,-0.5712,-0.7650,22.4390,24.8171,-22.8659
1595878867,0.3666,-0.5710,-0.7552,24.5732,30.6098,-22.8049
1595878867,0.2747,-0.5464,-0.7806,33.6585,41.4634,-22.1341
1595878867,0.3262,-0.5372,-0.7719,34.9390,22.0122,-20.3659
1595878867,0.3366,-0.5201,-0.7616,35.0610,16.8902,-19.0854
1595878867,0.3911,-0.5398,-0.7805,35.3659,12.8659,-13.2927
1595878867,0.3838,-0.5357,-0.7953,37.5610,13.7195,-10.6707
1595878867,0.3957,-0.5294,-0.8298,38.3537,15.9146,-7.3171
1595878867,0.4195,-0.5299,-0.7906,33.2927,10.0610,-5.6098
1595878867,0.4417,-0.5068,-0.7275,25.0610,4.0854,-3.6585
1595878867,0.4556,-0.4985,-0.7573,21.6463,11.0976,-1.0366
1595878867,0.4407,-0.4987,-0.7681,19.6951,11.8902,-0.6098
1595878867,0.4502,-0.4997,-0.7631,13.9634,7.8049,0.5488
1595878867,0.4715,-0.5093,-0.7356,6.5244,4.9390,5.3659
1595878867,0.4785,-0.5099,-0.7328,4.3293,4.6341,7.1951
1595878867,0.4809,-0.5007,-0.7273,-0.2439,7.1341,10.9146
1595878867,0.4884,-0.4911,-0.7202,-7.4390,15.1220,15.3049
1595878867,0.4687,-0.4908,-0.7307,-9.4512,19.2073,16.7073
1595878867,0.4701,-0.5017,-0.7424,-17.0122,22.6829,21.5244
1595878867,0.4707,-0.5098,-0.7402,-19.5122,23.9024,23.9634
1595878867,0.4847,-0.5292,-0.7077,-23.6585,28.5366,28.5366
1595878867,0.4997,-0.5396,-0.7015,-27.1951,34.9390,33.1707
1595878867,0.5149,-0.5857,-0.6788,-33.5976,96.0366,44.3293
1595878867,0.5123,-0.5759,-0.6628,-33.6585,106.0366,46.4024
1595878867,0.5078,-0.5696,-0.6581,-33.5976,124.8171,49.9390
1595878867,0.4843,-0.5844,-0.6673,-36.3415,143.1098,54.6341
1595878867,0.4694,-0.5825,-0.6422,-40.0000,136.2195,57.5610
1595878867,0.5011,-0.5840,-0.6190,-43.3537,126.2195,60.7927
1595878867,0.5036,-0.5806,-0.6159,-43.9024,124.3293,62.8659
1595878867,0.5114,-0.5817,-0.6204,-44.3293,124.0854,65.0610
1595878867,0.5222,-0.5895,-0.6544,-44.9390,124.5732,69.0854
1595878867,0.5317,-0.5913,-0.6589,-47.1951,115.4268,70.7317
1595878867,0.5378,-0.5938,-0.6493,-48.4756,109.8781,71.5854
1595878867,0.5402,-0.6021,-0.6382,-49.5732,105.5488,72.8659
1595878868,0.5500,-0.6077,-0.6281,-50.2439,102.6220,74.2073
1595878868,0.5726,-0.6089,-0.6130,-50.3659,100.8537,75.6707
1595878868,0.6029,-0.6035,-0.6053,-49.7561,100.6707,77.0122
1595878868,0.5837,-0.6080,-0.6493,-49.7561,114.1463,74.0854
1595878868,0.5709,-0.6064,-0.6267,-50.3659,112.3171,73.0488
1595878868,0.5811,-0.6067,-0.6164,-50.4878,110.0000,72.0732
1595878868,0.5995,-0.6159,-0.6059,-50.4268,109.0854,70.7927
1595878868,0.6227,-0.6111,-0.6055,-48.1098,113.9634,68.8415
1595878868,0.6295,-0.6005,-0.6176,-46.0366,119.7561,67.8659
1595878868,0.6194,-0.5958,-0.6338,-43.5366,127.7439,66.8293
1595878868,0.6014,-0.5992,-0.6497,-41.8293,136.2195,65.9146
1595878868,0.5910,-0.6075,-0.6520,-40.4878,142.7439,64.6951
1595878868,0.5753,-0.6152,-0.6397,-39.2073,147.8659,63.7195
1595878868,0.5518,-0.6125,-0.6219,-38.1098,151.9512,63.0488
1595878869,0.5339,-0.6068,-0.5990,-36.7073,154.4512,62.6829
1595878869,0.5289,-0.6130,-0.5666,-35.3049,154.5732,62.3171
1595878869,0.5338,-0.6247,-0.5337,-34.3293,152.9268,61.5244
1595878869,0.5376,-0.6313,-0.5172,-33.4146,150.7317,60.9756
1595878869,0.5353,-0.6358,-0.5135,-31.7683,148.7195,60.6707
1595878869,0.5336,-0.6332,-0.5233,-29.9390,146.1585,60.6098
1595878869,0.5273,-0.6336,-0.5385,-28.4756,143.0488,60.2439
1595878869,0.5427,-0.6746,-0.5323,-27.7439,130.8537,57.5000
1595878869,0.5450,-0.7280,-0.4579,-24.6951,119.2683,56.1585
1595878869,0.5408,-0.7459,-0.4305,-22.5000,117.7439,56.1585
1595878869,0.5128,-0.7264,-0.3636,-7.5000,104.8171,53.4146
1595878869,0.5267,-0.7223,-0.3325,-6.5854,106.2805,53.0488
1595878869,0.5256,-0.7202,-0.3148,-6.5244,110.4878,52.6829
1595878869,0.4384,-0.7492,-0.2892,-8.1098,119.7561,49.3902
1595878869,0.4423,-0.8136,-0.2838,-6.0366,116.8293,49.9390
1595878869,0.4190,-0.8455,-0.2761,-4.3902,114.0854,51.7073
1595878869,0.4816,-0.8647,-0.1074,5.3659,87.0122,66.3415
1595878869,0.4567,-0.9418,-0.0657,-20.6098,107.6829,41.7683
1595878869,0.4467,-0.8912,-0.0128,-25.6707,153.7195,35.2439
1595878869,0.4510,-0.8937,-0.0184,-24.3902,158.9634,33.9024
1595878869,0.4264,-0.9299,-0.0460,-19.8171,173.1098,29.1463
1595878869,0.4072,-0.9193,-0.0512,-17.5000,175.1829,27.6220
1595878869,0.2979,-0.9855,-0.1442,-26.5854,70.8537,-27.1341
1595878869,0.2545,-1.0385,-0.0168,-32.2561,4.3902,-31.1585
1595878869,0.3651,-1.2252,-0.0887,-28.2927,-51.9512,-29.4512
1595878869,0.4216,-1.1380,-0.0596,-29.6951,-62.9878,-26.9512
1595878870,0.6006,-0.7887,-0.1003,-36.2195,47.9878,-20.5488
1595878870,0.5894,-0.6765,-0.1133,-33.2927,73.0488,-15.9756
1595878870,0.5868,-0.6689,-0.1192,-33.6585,77.0732,-15.1829
1595878870,0.5966,-0.6612,-0.1259,-33.9024,79.2073,-14.3902
1595878870,0.6085,-0.6650,-0.1249,-34.2073,81.5244,-13.2927
1595878870,0.5909,-0.6855,-0.1215,-33.8415,87.4390,-11.8902
1595878870,0.5740,-0.6853,-0.1298,-32.1341,89.9390,-11.4024
1595878870,0.5592,-0.6801,-0.1446,-30.0610,91.8902,-10.7927
1595878870,0.5412,-0.6808,-0.1527,-28.5366,93.4756,-10.1220
1595878870,0.5258,-0.6805,-0.1603,-26.2195,93.1707,-8.1098
1595878870,0.5238,-0.6781,-0.1593,-25.7927,90.6707,-7.5000
1595878870,0.5350,-0.6686,-0.1515,-25.3659,86.8293,-7.0122
1595878870,0.5437,-0.6642,-0.1417,-25.0610,84.5122,-6.2805
1595878870,0.5282,-0.6629,-0.1331,-25.4268,85.6098,-5.2439
1595878870,0.5117,-0.6669,-0.1276,-26.0976,87.9268,-4.1463
1595878870,0.5075,-0.6693,-0.1105,-26.6463,88.9024,-3.2317
1595878870,0.5014,-0.6801,-0.0894,-26.9512,88.2317,-2.3171
1595878870,0.4890,-0.7064,-0.0664,-27.0732,86.9512,-2.1951
1595878870,0.4675,-0.7335,-0.0537,-26.8293,86.4634,-2.1951
1595878870,0.4465,-0.7470,-0.0585,-26.4634,85.7927,-1.7683
1595878870,0.4296,-0.7498,-0.0742,-25.7927,83.7805,-1.2195
1595878870,0.4172,-0.7453,-0.0859,-24.6341,81.0366,-0.7927
1595878870,0.4046,-0.7460,-0.1072,-23.6585,77.9268,-0.4878
1595878870,0.4045,-0.7588,-0.1172,-23.6585,74.0244,-0.0610
1595878870,0.4078,-0.7725,-0.1183,-24.0854,70.3659,0.9146
1595878870,0.3920,-0.7883,-0.1234,-24.3902,67.1341,1.8293
1595878870,0.3681,-0.8065,-0.1291,-24.9390,63.2317,2.4390
1595878870,0.3460,-0.8276,-0.1334,-26.0976,57.0122,2.5000
1595878870,0.3468,-0.8398,-0.1363,-27.4390,48.1098,2.6829
1595878870,0.3541,-0.8499,-0.1342,-28.5976,39.8780,3.1098
1595878870,0.3504,-0.8550,-0.1371,-29.8780,34.3293,3.8415
1595878870,0.3408,-0.8730,-0.1450,-31.2805,30.8537,4.8780
1595878870,0.3345,-0.9256,-0.1565,-33.1098,27.9878,5.6707
1595878870,0.3408,-0.9883,-0.1666,-35.1829,24.5122,6.6463
1595878870,0.3624,-1.0330,-0.1641,-35.9756,21.3415,8.4756
1595878870,0.3747,-1.0637,-0.1541,-35.5488,19.3902,11.1585
1595878870,0.4115,-1.0399,-0.1331,-34.6341,21.2805,15.9146
1595878870,0.4205,-0.9878,-0.1147,-34.7561,24.2073,17.1951
1595878870,0.3987,-0.9528,-0.1031,-35.1220,28.5976,17.8049
1595878870,0.3649,-0.9520,-0.0990,-35.7317,32.8049,18.1098
1595878870,0.3492,-0.9709,-0.1017,-36.4634,33.5366,17.9878
1595878870,0.3613,-0.9944,-0.1102,-36.5854,31.5244,18.0488
1595878870,0.3721,-1.0032,-0.1210,-35.7317,29.6341,18.2927
1595878870,0.3766,-1.0056,-0.1413,-33.9024,28.1707,17.8049
1595878870,0.3784,-1.0145,-0.1596,-32.1951,28.4756,17.0122
1595878870,0.3776,-1.0168,-0.1865,-30.6098,29.5122,16.9512
1595878870,0.3884,-1.0098,-0.2248,-29.0854,30.1829,17.5610
1595878870,0.4089,-0.9918,-0.2363,-28.2317,29.4512,18.1098
1595878870,0.4180,-0.9610,-0.2122,-26.5244,28.7805,19.3293
1595878870,0.4244,-0.9396,-0.1873,-25.0610,29.3902,21.3415
1595878870,0.4220,-0.9177,-0.1614,-24.1463,30.7927,22.5610
1595878870,0.4188,-0.8987,-0.1456,-23.7805,31.8902,22.6829
1595878870,0.4110,-0.8820,-0.1346,-22.7439,32.5610,21.9512
1595878870,0.3987,-0.8732,-0.1155,-21.6463,31.9512,20.9146
1595878870,0.4088,-0.8766,-0.1005,-21.5244,29.7561,20.3659
1595878870,0.4340,-0.8847,-0.0902,-21.0366,27.0122,19.8171
1595878870,0.4636,-0.8839,-0.0972,-19.7561,25.0000,18.9024
1595878870,0.4907,-0.8901,-0.1053,-19.3293,24.3902,18.2317
1595878870,0.5089,-0.8842,-0.1042,-18.1098,25.9146,17.8659
1595878870,0.4954,-0.8731,-0.1054,-15.5488,29.5122,17.3780
1595878870,0.4743,-0.8697,-0.1112,-13.7195,33.1707,16.8902
1595878870,0.4473,-0.8604,-0.1115,-12.3171,36.7073,16.8902
1595878870,0.4279,-0.8510,-0.1027,-11.0366,37.9268,17.1951
1595878870,0.4222,-0.8439,-0.0944,-9.7561,35.4878,17.3171
1595878870,0.4137,-0.8463,-0.0829,-8.5366,31.1585,17.3171
1595878870,0.4088,-0.8568,-0.0726,-7.8049,27.1341,18.1098
1595878870,0.4194,-0.8704,-0.0652,-6.5244,22.9268,18.7805
1595878870,0.4644,-0.8939,-0.0768,-4.3902,18.8415,18.8415
1595878870,0.5346,-0.9018,-0.0900,-2.0732,16.0976,19.5732
1595878870,0.5614,-0.8975,-0.1113,0.3659,16.1585,20.1220
1595878870,0.5303,-0.8840,-0.1253,3.1707,21.0366,20.0000
1595878870,0.5010,-0.8654,-0.1124,6.5244,27.3171,20.1220
1595878870,0.4839,-0.8575,-0.0676,10.1220,32.4390,20.3659
1595878870,0.4807,-0.8672,-0.0143,12.8659,34.7561,20.9146
1595878870,0.4805,-0.8898,0.0312,14.6951,34.6341,20.3659
1595878870,0.4698,-0.8977,0.0453,16.8902,34.0244,19.0854
1595878870,0.4636,-0.8942,0.0394,18.9634,32.8659,18.4146
1595878870,0.4495,-0.8862,0.0281,20.7927,31.0976,16.6463
1595878870,0.4230,-0.8774,-0.0162,22.5000,29.6951,15.0610
1595878870,0.3937,-0.8738,-0.0624,22.6220,29.4512,14.6341
1595878870,0.4250,-0.8951,-0.0519,20.9756,27.4390,14.5732
1595878870,0.5142,-0.9402,-0.0266,21.1585,23.2317,13.7195
1595878870,0.5508,-0.9819,-0.0028,23.2927,24.4512,12.4390
1595878870,0.5120,-0.9999,0.0209,25.7927,32.4390,11.9512
1595878870,0.4597,-0.9907,0.0538,27.3780,41.4634,10.6098
1595878870,0.4249,-0.9802,0.0829,28.4756,46.1585,8.8415
1595878870,0.4067,-0.9802,0.0986,29.6951,46.6463,7.5610
1595878870,0.3850,-0.9847,0.1084,30.9756,46.1585,7.1341
1595878870,0.3613,-0.9800,0.1058,31.8902,44.0244,6.6463
1595878870,0.3696,-0.9612,0.0952,32.0122,38.3537,5.6098
1595878870,0.3980,-0.9393,0.0757,30.9146,29.9390,4.3293
1595878870,0.4177,-0.9226,0.0562,29.2073,20.8537,2.7439
1595878870,0.4005,-0.9033,0.0613,26.8293,14.6341,1.1585
1595878870,0.3676,-0.8704,0.0816,24.8171,10.4878,0.0610
1595878870,0.3597,-0.8441,0.1033,22.9878,7.0122,-0.0610
1595878870,0.3849,-0.8416,0.1447,20.4268,4.8780,0.6707
1595878870,0.4072,-0.8397,0.1978,18.7195,5.9756,0.9756
1595878870,0.4158,-0.8357,0.2380,18.3537,10.1220,0.6707
1595878870,0.4149,-0.8391,0.2375,18.2317,15.1829,0.0610
1595878870,0.4237,-0.8531,0.2100,18.0488,18.9634,-0.7927
1595878870,0.4503,-0.8707,0.1823,17.6220,20.9756,-0.9146
1595878870,0.4658,-0.8854,0.1349,17.3171,23.5976,-0.3049
1595878870,0.4334,-0.8894,0.1126,16.1585,27.6220,0.7927
1595878871,0.4066,-0.8848,0.1161,16.0976,31.6463,3.2317
1595878871,0.3874,-0.8845,0.1289,17.1341,36.9512,5.9756
1595878871,0.3771,-0.8743,0.1512,19.5732,42.6829,7.6220
1595878871,0.3741,-0.8739,0.1812,22.3171,47.1341,8.5976
1595878871,0.3700,-0.8674,0.1994,24.3293,47.6220,9.3902
1595878871,0.3705,-0.8535,0.2159,26.2195,45.3659,9.6341
1595878871,0.3735,-0.8434,0.2175,26.7683,41.8902,9.3902
1595878871,0.3833,-0.8603,0.2062,25.4878,37.7439,8.7805
1595878871,0.3971,-0.8728,0.2053,24.0854,34.8171,7.9878
1595878871,0.3881,-0.8669,0.2101,24.4512,34.5122,8.4146
1595878871,0.3527,-0.8780,0.2211,24.2683,35.6707,8.7805
1595878871,0.3189,-0.8729,0.2095,23.1098,35.0610,8.5976
1595878871,0.2941,-0.8641,0.1887,21.2805,32.5610,8.5976
1595878871,0.3235,-0.8823,0.1902,18.1098,28.4756,9.0244
1595878871,0.3697,-0.8882,0.1986,16.4634,24.1463,8.9634
1595878871,0.3902,-0.8751,0.2067,16.6463,22.8659,8.5366
1595878871,0.3862,-0.8654,0.2076,16.7073,24.5732,7.9268
1595878871,0.4022,-0.8764,0.2048,15.7927,26.1585,6.5244
1595878871,0.4333,-0.8918,0.2142,13.9024,27.3171,5.0000
1595878871,0.4350,-0.8937,0.2043,12.5610,29.1463,3.6585
1595878871,0.4206,-0.8806,0.2096,12.8659,34.9390,2.6220
1595878871,0.4033,-0.8626,0.2271,15.1220,44.2683,2.5610
1595878872,0.3578,-0.8573,0.2407,6.8902,41.6463,-2.9268
1595878872,0.4291,-0.8630,0.2675,2.9878,40.8537,-1.9512
1595878872,0.3275,-0.8745,0.3145,10.9146,59.3293,-8.4146
1595878872,0.2145,-0.8463,0.4127,21.9512,127.3171,-4.1463
1595878872,0.2379,-0.8441,0.3531,14.4512,81.7683,-8.1098
1595878872,0.2390,-0.8546,0.3497,14.0244,74.2073,-6.2805
1595878872,0.3008,-0.8744,0.3835,9.3293,69.7561,-5.0000
1595878872,0.1939,-0.8450,0.4352,12.0732,82.7439,-1.6463
1595878872,0.2568,-0.8756,0.4879,5.2439,18.2317,-9.8780
1595878872,0.2441,-0.8587,0.4546,9.4512,24.6341,-9.4512
1595878872,0.2232,-0.8256,0.4833,11.5244,14.3902,-12.3171
1595878872,0.2168,-0.8217,0.4759,10.8537,15.4878,-11.3415
1595878872,0.2360,-0.8178,0.4693,3.4756,-6.4024,-10.3049
1595878872,0.2567,-0.8098,0.4680,0.9756,-5.1829,-3.9634
1595878872,0.3101,-0.8207,0.4855,1.9512,-31.2805,-8.4146
1595878872,0.2761,-0.8189,0.5051,2.9878,-31.7683,-9.2683
1595878872,0.2599,-0.8122,0.5135,4.2073,-29.6951,-8.3537
1595878872,0.2399,-0.8748,0.3912,5.7317,-10.4268,-4.8780
1595878872,0.2893,-0.9006,0.3854,4.4512,-20.0000,-5.1220
1595878872,0.3295,-0.9420,0.3457,-1.5244,-27.8049,-5.6098
1595878872,0.3162,-0.9369,0.3144,-2.0122,-27.2561,-7.2561
1595878872,0.2822,-0.9321,0.3382,-2.3780,-23.4756,-8.1098
1595878872,0.4892,-0.9163,0.3258,-0.3049,-28.4756,-15.3049
1595878872,0.4905,-0.9444,0.2330,-1.8902,-26.1585,-18.2927
1595878872,0.4726,-0.9459,0.2617,-5.1829,-14.5122,-21.2195
1595878872,0.6625,-0.9276,0.3657,1.7683,3.1098,-33.1707
1595878872,0.6794,-0.8962,0.3704,2.9878,17.9878,-41.0366
1595878872,0.6501,-0.8748,0.3532,-1.5854,34.0244,-47.4390
1595878872,0.6392,-0.8548,0.3309,-8.0488,42.4390,-53.6585
1595878872,0.6255,-0.8306,0.3125,-13.9024,42.5610,-59.7561
1595878872,0.5827,-0.7958,0.3041,-19.2073,38.5976,-65.0000
1595878872,0.5466,-0.7740,0.2889,-25.9146,32.3171,-68.5976
1595878872,0.5122,-0.7648,0.2648,-33.7805,23.2317,-71.0976
1595878872,0.5074,-0.7504,0.2325,-42.1951,11.0976,-72.5610
1595878872,0.5162,-0.7476,0.2288,-51.0366,-1.0976,-73.4146
1595878872,0.5112,-0.7487,0.2473,-58.8415,-9.7561,-74.3902
1595878872,0.5290,-0.7303,0.2773,-66.1585,-14.9390,-73.9634
1595878872,0.5336,-0.7106,0.2946,-73.4756,-15.6098,-72.3781
1595878872,0.5015,-0.7007,0.3077,-80.4878,-10.7317,-70.4268
1595878872,0.4855,-0.6944,0.3333,-85.4268,-3.5366,-67.7439
1595878872,0.5172,-0.7109,0.3684,-88.0488,4.2683,-64.6951
1595878872,0.5511,-0.7724,0.4359,-89.3293,26.6463,-57.3781
1595878872,0.5320,-0.7952,0.4199,-88.4756,41.4634,-51.8293
1595878872,0.5121,-0.7772,0.3918,-88.9024,53.0488,-46.2805
1595878872,0.3624,-0.6890,0.3499,-94.5122,53.7805,-36.8902
1595878872,0.2825,-0.6762,0.3405,-99.4512,40.0000,-31.0976
1595878872,0.2375,-0.6697,0.3364,-103.4756,17.0122,-24.9390
1595878872,0.2296,-0.6833,0.3447,-107.5000,-11.8902,-19.2073
1595878872,0.2456,-0.7156,0.3492,-110.4878,-40.3659,-13.8415
1595878872,0.2944,-0.7535,0.3564,-111.0976,-63.1098,-7.5000
1595878872,0.3800,-0.7948,0.3685,-109.4512,-76.7683,-0.3049
1595878872,0.4703,-0.8252,0.3673,-104.4512,-78.4756,5.4268
1595878872,0.5179,-0.8405,0.3655,-96.9512,-68.1098,10.1829
1595878872,0.5399,-0.8600,0.3611,-87.6829,-48.2927,14.5732
1595878872,0.5602,-0.8787,0.3522,-77.1341,-23.7805,17.9268
1595878872,0.5479,-0.8833,0.3306,-66.0366,0.3049,19.3902
1595878872,0.5155,-0.8862,0.2975,-57.5610,20.9146,19.6951
1595878872,0.4897,-0.8928,0.2590,-50.5488,37.8659,20.5488
1595878872,0.4778,-0.8887,0.2123,-44.0244,50.9756,21.1585
1595878872,0.4608,-0.8871,0.1902,-40.0000,60.0610,20.9756
1595878872,0.4517,-0.8923,0.1985,-36.6463,65.3659,20.7927
1595878872,0.4550,-0.8938,0.2032,-30.5488,69.9390,21.0366
1595878872,0.4297,-0.9080,0.2088,-23.5366,77.1951,20.8537
1595878872,0.3907,-0.9284,0.2349,-18.7195,85.4268,20.2439
1595878872,0.3738,-0.9325,0.2744,-13.5976,90.4878,20.3659
1595878872,0.3666,-0.9167,0.3130,-6.6463,91.7073,20.7927
1595878872,0.3619,-0.8947,0.3434,-0.4878,90.7927,20.4268
1595878872,0.3539,-0.8762,0.3666,4.3293,88.9024,20.1829
1595878872,0.3530,-0.8539,0.3846,7.8659,85.4878,19.6951
1595878872,0.3625,-0.8378,0.4112,10.3659,79.7561,19.2073
1595878872,0.3781,-0.8300,0.4307,11.7683,70.5488,18.6585
1595878872,0.3764,-0.8226,0.4335,12.9878,57.9878,16.8902
1595878872,0.3686,-0.8206,0.4192,13.3537,44.5732,14.2683
1595878872,0.3666,-0.8399,0.4051,12.5000,31.4024,12.1951
1595878872,0.3707,-0.8585,0.3947,10.8537,18.1098,10.6707
1595878872,0.3821,-0.8464,0.3773,9.7561,4.5122,9.6951
1595878872,0.3991,-0.8320,0.3660,9.2073,-7.8659,9.3293
1595878872,0.4202,-0.8250,0.3625,8.7195,-18.4146,8.7805
1595878872,0.4547,-0.8145,0.3533,9.0854,-26.5854,8.3537
1595878872,0.4783,-0.8033,0.3453,10.4878,-30.9756,7.3171
1595878872,0.5101,-0.8078,0.3450,10.9756,-31.8902,6.0366
1595878872,0.5640,-0.8193,0.3406,12.5610,-29.6951,4.7561
1595878872,0.5823,-0.8273,0.3293,17.0732,-22.1951,2.8659
1595878872,0.5569,-0.8321,0.3109,20.4268,-9.5732,0.9146
1595878872,0.5264,-0.8206,0.2941,22.2561,3.6585,0.1220
1595878872,0.5047,-0.7963,0.2789,23.5366,13.4146,-1.1585
1595878872,0.4982,-0.7804,0.2621,24.7561,20.4268,-2.9268
1595878872,0.4926,-0.7648,0.2496,25.7927,26.1585,-4.6341
1595878872,0.4847,-0.7449,0.2413,25.9146,31.2195,-5.4878
1595878872,0.4763,-0.7284,0.2344,24.5732,35.0000,-5.7927
1595878872,0.4658,-0.7234,0.2451,22.3171,36.7683,-5.6707
1595878872,0.4673,-0.7334,0.2759,19.5122,35.0610,-5.0610
1595878872,0.4897,-0.7455,0.2999,18.9634,30.4878,-4.1463
1595878872,0.4944,-0.7377,0.3038,21.0976,27.4390,-3.4146
1595878872,0.4780,-0.7316,0.3030,22.1341,28.9024,-2.8659
1595878872,0.4706,-0.7299,0.3047,21.8293,31.5244,-2.6829
1595878872,0.4898,-0.7279,0.3088,22.0122,31.6463,-3.2317
1595878872,0.5184,-0.7208,0.3135,23.2927,30.7927,-4.3902
1595878872,0.5216,-0.6975,0.3187,25.2439,31.3415,-5.1220
1595878872,0.5129,-0.6728,0.3069,25.9756,33.9634,-5.0610
1595878872,0.5189,-0.7081,0.3400,22.5000,34.3293,-5.2439
1595878872,0.5239,-0.7312,0.4031,19.8780,29.6951,-5.1220
1595878872,0.5022,-0.7204,0.4326,22.9878,26.2805,-3.7195
1595878872,0.4756,-0.7252,0.4332,26.0366,25.6098,-2.0122
1595878872,0.4766,-0.7471,0.4320,27.1341,24.3902,-1.3415
1595878872,0.4872,-0.7611,0.4224,28.7805,22.0732,-2.5000
1595878872,0.4999,-0.7791,0.4257,29.8171,19.2073,-4.7561
1595878872,0.5172,-0.7921,0.4259,31.0976,16.5244,-6.0976
1595878872,0.5181,-0.7917,0.4300,32.7439,15.7317,-7.2561
1595878872,0.5005,-0.7651,0.4244,32.4390,16.5854,-8.4756
1595878872,0.4818,-0.7634,0.3948,30.8537,17.7439,-9.6951
1595878872,0.4803,-0.7809,0.3853,25.9756,17.3780,-11.4634
1595878872,0.4952,-0.7794,0.4037,24.4512,14.6341,-12.6220
1595878872,0.5363,-0.7801,0.4360,24.2073,11.7683,-13.4146
1595878872,0.5756,-0.7701,0.4571,25.1220,13.6585,-13.9634
1595878872,0.5667,-0.7381,0.4619,27.7439,23.0488,-16.0976
1595878872,0.5304,-0.7252,0.4408,27.7439,36.9512,-18.4146
1595878872,0.4884,-0.7139,0.4193,25.2439,49.2683,-19.9390
1595878873,0.4697,-0.7021,0.3941,24.2683,56.7073,-20.9146
1595878873,0.4627,-0.6862,0.3936,22.8049,59.2683,-22.3171
1595878873,0.4603,-0.6611,0.3962,23.1098,58.7805,-23.5976
1595878873,0.4904,-0.6493,0.4115,22.4390,57.6220,-23.4756
1595878873,0.5306,-0.6560,0.3973,22.9268,60.2439,-22.8049
1595878873,0.5305,-0.6514,0.3974,23.6585,70.7317,-24.1463
1595878873,0.5051,-0.6386,0.4080,24.0244,84.4512,-23.4756
1595878873,0.4582,-0.6331,0.4320,20.6098,96.4634,-20.4268
1595878873,0.4040,-0.6128,0.4536,19.0854,103.7195,-17.8659
1595878873,0.3412,-0.5896,0.4499,17.8659,106.4024,-16.5854
1595878873,0.2751,-0.5734,0.3971,15.1220,106.2195,-14.2683
1595878873,0.2755,-0.6223,0.3524,9.8171,102.5000,-10.1829
1595878873,0.3234,-0.6828,0.3517,6.0366,96.3415,-3.9024
1595878873,0.3851,-0.7471,0.4204,4.9390,94.5122,3.9634
1595878873,0.3738,-0.7509,0.4956,7.2561,102.2561,11.6463
1595878873,0.3008,-0.7640,0.5533,6.8293,116.9512,16.0976
1595878873,0.2617,-0.7790,0.5767,3.0488,124.3902,19.2683
1595878873,0.2425,-0.7677,0.5272,-1.2805,118.2927,22.9268
1595878873,0.2434,-0.7685,0.4482,-7.8659,106.8293,23.1098
1595878873,0.2640,-0.7989,0.4180,-14.9390,95.1829,23.9024
1595878873,0.2496,-0.8524,0.4021,-20.1829,88.4756,26.9512
1595878873,0.1954,-0.8967,0.3967,-24.8780,91.5854,29.1463
1595878873,0.1313,-0.9360,0.4014,-28.1098,100.1829,30.0000
1595878873,0.0963,-0.9652,0.4103,-31.4024,107.9878,31.9512
1595878873,0.0659,-0.9788,0.4169,-32.6829,112.0732,34.2683
1595878873,0.0371,-0.9885,0.4173,-33.1707,111.8293,34.9390
1595878873,0.0475,-1.0040,0.4318,-34.0854,105.9756,34.3293
1595878873,0.0714,-1.0062,0.4387,-33.4146,96.7683,33.1707
1595878873,0.0634,-0.9980,0.4353,-31.3415,90.0610,31.2805
1595878873,0.0595,-0.9973,0.4090,-30.7927,85.0610,28.6585
1595878873,0.0403,-1.0007,0.2989,-29.9390,79.5122,25.3049
1595878873,0.0003,-1.0009,0.3648,-28.9634,73.2927,21.4634
1595878873,0.0461,-0.9670,0.4080,-24.6951,69.6341,20.3049
1595878873,0.1008,-0.9709,0.4133,-22.5000,65.9146,16.7073
1595878873,0.1100,-0.9497,0.4338,-14.6951,64.9390,7.2561
1595878873,0.0620,-0.9073,0.4167,-8.3537,68.2317,5.6707
1595878873,0.0273,-0.9271,0.4259,-6.5854,70.4878,1.7073
1595878873,0.0804,-0.9467,0.4357,-3.9634,69.2073,-3.2317
1595878873,0.1891,-0.9594,0.4891,-0.2439,66.8902,-5.0610
1595878873,0.1165,-0.8903,0.4765,4.3293,68.5366,-6.7683
1595878873,-0.0051,-0.9154,0.5131,3.1098,77.5610,-9.6341
1595878873,-0.0984,-0.8898,0.5522,1.8293,84.6341,-12.1951
1595878873,-0.0933,-0.8546,0.5422,3.4756,79.0244,-8.9634
1595878873,-0.1089,-0.8715,0.5523,5.7317,72.5000,-6.7073
1595878873,-0.1620,-0.8732,0.5526,6.0366,66.6463,-6.9512
1595878873,-0.0455,-0.9022,0.5588,5.4268,53.3537,-6.3415
1595878873,0.0440,-0.9281,0.5337,7.2561,42.2561,-7.1951
1595878873,-0.0215,-0.8872,0.5205,8.1098,45.4878,-10.7317
1595878873,-0.1462,-0.8915,0.6689,4.2683,55.4878,-7.1341
1595878873,0.0294,-0.9514,0.4713,4.4512,55.9146,-0.8537
1595878873,0.2973,-1.0159,0.4294,11.8293,37.6829,-20.6707
1595878873,0.2100,-0.9247,0.4388,22.0122,22.5610,-24.8171
1595878873,0.1124,-0.9084,0.4470,14.8171,48.4756,-13.3537
1595878873,0.0449,-0.8665,0.4482,17.1341,77.6220,-19.6341
1595878873,0.0127,-0.8741,0.5168,21.2195,89.6341,-20.2439
1595878873,0.0512,-0.9351,0.4705,16.8293,86.5244,-19.8171
1595878873,0.0865,-0.9548,0.5299,19.8171,67.9268,-26.4024
1595878873,-0.0027,-0.9465,0.5041,22.3171,50.5488,-28.4756
1595878873,-0.1392,-0.9477,0.3600,22.8659,31.7073,-28.3537
1595878873,-0.2228,-0.8994,0.3894,22.9268,8.7195,-26.2195
1595878873,-0.2341,-0.8319,0.5093,22.7439,-7.1951,-14.6341
1595878873,-0.0938,-0.8253,0.6097,22.6829,-18.5976,-11.5244
1595878873,-0.0593,-0.8039,0.5601,24.5122,-32.8049,-15.3659
1595878873,-0.1240,-0.8173,0.5929,23.0488,-37.0122,-18.5976
1595878873,-0.1245,-0.8691,0.7451,20.3049,-40.6707,-13.4146
1595878873,-0.0417,-0.8968,0.8343,22.6220,-52.8049,-14.4512
1595878873,0.0182,-0.9442,0.8174,25.5488,-65.2439,-19.3293
1595878873,0.0693,-0.9187,0.6462,26.8902,-73.0488,-23.7805
1595878873,0.0851,-0.9142,0.5034,26.0976,-80.0610,-29.8171
1595878873,0.1797,-0.9255,0.4326,19.3293,-84.0244,-32.3780
1595878873,0.2435,-0.8911,0.4420,19.2073,-86.4024,-36.0366
1595878873,0.2060,-0.9021,0.5170,19.3902,-73.0488,-42.9878
1595878873,0.0894,-0.8957,0.5824,17.6220,-49.2683,-43.6585
1595878873,-0.0253,-0.8513,0.5728,20.9146,-31.7073,-42.6220
1595878873,0.0088,-0.8202,0.5104,24.0244,-23.1707,-43.0488
1595878873,0.0722,-0.8833,0.5176,20.3659,-26.8902,-46.2195
1595878873,-0.1384,-0.8961,0.6859,10.4878,-36.2805,-47.1951
1595878873,0.0393,-0.9161,0.6833,6.4634,-53.6585,-35.6098
1595878873,0.1472,-0.8702,0.5754,16.2195,-81.5244,-29.6951
1595878873,0.0128,-0.8436,0.4352,13.1098,-80.0610,-38.8415
1595878873,0.1660,-0.8521,0.2945,5.1220,-86.1585,-29.0244
1595878873,0.3875,-0.9087,0.3436,3.4756,-102.0122,-30.3659
1595878873,0.4751,-0.8892,0.4124,1.4634,-104.6951,-38.2317
1595878873,0.5436,-0.9821,0.5834,4.1463,-89.3902,-39.5732
1595878873,0.5182,-0.9330,0.5559,7.1951,-63.5366,-41.4634
1595878873,0.3024,-0.9248,0.4329,14.8780,-39.8780,-44.2073
1595878873,0.3047,-0.8853,0.4898,12.9268,-35.4878,-46.7073
1595878873,0.5984,-0.9035,0.5186,17.0122,-60.0000,-48.4756
1595878873,0.5964,-0.9871,0.4734,19.0854,-79.8781,-60.9146
1595878873,0.4475,-0.8672,0.3049,20.4878,-74.3902,-63.3537
1595878873,0.4746,-0.8564,0.2559,19.2683,-66.3415,-61.0976
1595878873,0.3471,-0.7833,0.2934,16.8902,-66.0976,-66.4024
1595878873,0.2777,-0.7906,0.3315,13.1098,-66.4634,-64.0854
1595878873,0.3444,-0.7789,0.4801,8.9024,-73.4756,-64.5122
1595878873,0.5223,-0.7591,0.5731,13.4146,-87.6829,-65.3049
1595878873,0.7125,-0.7617,0.6660,15.9146,-95.2439,-70.8537
1595878873,0.8004,-0.7227,0.5775,21.7073,-94.8781,-71.6463
1595878873,1.0668,-0.8425,0.3895,26.7073,-82.5000,-71.3415
1595878873,0.8205,-0.7814,0.7026,33.4146,-50.1220,-72.9268
1595878873,0.1116,-0.4726,0.8648,53.9634,8.2317,-67.7439
1595878873,0.0511,-0.5364,0.8054,68.2317,29.6951,-53.9634
1595878874,0.4399,-0.7079,0.7051,68.2927,-11.0366,-54.6951
1595878874,0.5234,-0.6764,0.7923,70.9756,-56.5244,-60.0610
1595878874,0.4871,-0.6135,0.8932,77.0732,-71.0976,-58.9634
1595878874,0.5314,-0.6384,0.7721,85.0000,-84.2683,-51.2805
1595878874,0.5432,-0.6342,0.7031,86.5244,-94.7561,-54.8781
1595878874,0.4655,-0.4963,0.6480,89.9390,-104.3902,-58.3537
1595878874,0.4273,-0.4478,0.5730,92.9268,-118.4146,-58.7195
1595878874,0.5341,-0.4712,0.5164,87.5610,-140.2439,-59.5122
1595878874,0.5674,-0.4241,0.4764,82.0122,-163.9634,-61.8293
1595878874,0.5193,-0.3568,0.4383,76.7683,-174.6342,-62.0732
1595878874,0.4726,-0.3116,0.3494,71.6463,-178.7195,-58.9634
1595878874,0.4689,-0.2902,0.2607,64.5122,-184.6951,-55.9146
1595878874,0.5187,-0.2444,0.1830,56.4634,-194.2073,-53.1707
1595878874,0.4996,-0.1807,0.1202,49.1463,-203.5366,-49.5732
1595878874,0.5499,-0.1537,0.0704,40.0000,-212.4390,-44.7561
1595878874,0.6521,-0.1562,0.0032,30.7317,-222.4390,-39.8171
1595878874,0.6935,-0.1616,-0.0410,19.6951,-227.6220,-38.5366
1595878874,0.7144,-0.1371,-0.0945,9.9390,-225.9146,-35.3049
1595878874,0.6490,-0.1254,-0.1648,0.3049,-219.5732,-29.5732
1595878874,0.5812,-0.1291,-0.2039,-12.6220,-217.3171,-24.8171
1595878874,0.6517,-0.1465,-0.2148,-25.4268,-226.1585,-18.5976
1595878874,0.7388,-0.1678,-0.2377,-37.5000,-238.9025,-13.4146
1595878874,0.8244,-0.1927,-0.2551,-49.3902,-246.4025,-9.3293
1595878874,0.8890,-0.2146,-0.2585,-59.2073,-245.7927,-3.7195
1595878874,0.9001,-0.2495,-0.2582,-67.0732,-237.8659,2.6220
1595878874,0.8685,-0.2837,-0.2466,-72.9268,-222.3781,7.2561
1595878874,0.8544,-0.2882,-0.2593,-75.0610,-204.0854,10.1220
1595878874,0.8712,-0.2966,-0.3035,-76.6463,-191.4025,14.1463
1595878874,0.8903,-0.3282,-0.3105,-80.4268,-186.4634,16.7073
1595878874,0.9623,-0.3598,-0.2764,-82.8049,-188.9634,17.1951
1595878874,1.0123,-0.3882,-0.2175,-82.2561,-192.7439,17.0122
1595878874,0.9883,-0.3818,-0.1563,-78.5976,-185.9756,14.7561
1595878874,0.9268,-0.3802,-0.0334,-72.6829,-175.3659,13.7805
1595878874,0.9770,-0.4083,0.0027,-66.3415,-169.3902,13.1098
1595878874,0.9836,-0.3513,-0.1707,-57.5000,-165.9756,9.8780
1595878874,1.0272,-0.3842,-0.2637,-52.5000,-160.6098,7.3780
1595878874,1.1194,-0.4194,-0.2422,-49.0854,-156.5244,0.7927
1595878874,1.0712,-0.3988,-0.2061,-42.9268,-145.3049,-4.8171
1595878874,0.9439,-0.4227,-0.1984,-36.9512,-126.5244,-5.9756
1595878874,0.9869,-0.4628,-0.1580,-32.9268,-118.5366,-7.0732
1595878874,1.0865,-0.4854,-0.1569,-27.8659,-117.5610,-6.2805
1595878874,1.0087,-0.4571,-0.2421,-24.6341,-113.0488,-5.3659
1595878874,0.9945,-0.4661,-0.2867,-22.5610,-107.1341,-6.3415
1595878874,1.0112,-0.4797,-0.3078,-19.6951,-100.6098,-7.5610
1595878874,0.9719,-0.4701,-0.3124,-17.8049,-89.1463,-7.3780
1595878874,0.9627,-0.4709,-0.3304,-16.5244,-78.5366,-5.7317
1595878874,0.9243,-0.4617,-0.3637,-15.6707,-74.3293,-3.4146
1595878874,0.8048,-0.4509,-0.3790,-16.3415,-74.3902,-1.7683
1595878874,0.8035,-0.4561,-0.4174,-18.1098,-79.5732,-0.4268
1595878874,0.9132,-0.4765,-0.4794,-20.4878,-89.0854,2.1951
1595878874,0.9478,-0.4829,-0.5037,-23.7805,-91.5244,3.2317
1595878874,0.9531,-0.4916,-0.5137,-26.2195,-82.9268,5.4878
1595878874,0.9344,-0.5034,-0.4973,-28.1707,-71.8293,8.5366
1595878874,0.8645,-0.4538,-0.5071,-29.1463,-61.3415,10.8537
1595878874,0.8840,-0.4653,-0.4809,-29.6341,-52.6220,15.1829
1595878874,0.9390,-0.5018,-0.4189,-29.8780,-49.2683,16.4634
1595878874,0.9153,-0.4680,-0.4059,-27.5610,-43.6585,17.3171
1595878874,0.8746,-0.4670,-0.4550,-24.3293,-32.6220,17.2561
1595878874,0.8262,-0.4542,-0.5711,-21.7683,-23.7805,13.5366
1595878874,0.8511,-0.4362,-0.6291,-22.0122,-20.9756,9.5732
1595878874,0.9120,-0.4675,-0.6002,-23.4756,-22.4390,5.3049
1595878874,0.8570,-0.4940,-0.6503,-24.2073,-20.4878,1.5244
1595878874,0.8523,-0.4826,-0.6343,-26.5854,-18.5976,-2.7439
1595878874,0.9711,-0.4900,-0.5995,-28.6585,-23.5366,-7.0732
1595878874,0.9877,-0.4592,-0.6116,-28.9024,-26.3415,-11.7683
1595878874,0.9631,-0.4459,-0.6082,-28.2317,-20.4268,-15.7927
1595878874,0.9346,-0.4453,-0.5687,-26.7683,-13.4756,-18.8415
1595878874,0.8928,-0.4332,-0.5294,-24.6341,-4.4512,-20.1220
1595878874,0.8469,-0.4081,-0.5286,-22.5000,6.7683,-20.1220
1595878874,0.7897,-0.3978,-0.5269,-20.1220,11.9512,-21.4634
1595878874,0.7433,-0.4039,-0.4975,-18.7805,9.8780,-24.5122
1595878874,0.7590,-0.3837,-0.4750,-17.4390,5.8537,-25.6098
1595878874,0.7303,-0.3704,-0.4514,-14.7561,7.4390,-24.2683
1595878874,0.6957,-0.3708,-0.4345,-11.5244,11.4024,-23.9024
1595878874,0.7225,-0.3691,-0.4593,-9.1463,9.6341,-22.2561
1595878874,0.7092,-0.3581,-0.4985,-7.1951,6.5244,-20.8537
1595878874,0.7421,-0.3839,-0.5261,-5.9756,5.6707,-19.7561
1595878874,0.7835,-0.3776,-0.5981,-4.2073,4.3293,-17.0122
1595878874,0.7566,-0.3608,-0.6133,-3.9024,4.4512,-13.4146
1595878874,0.7663,-0.4048,-0.5612,-5.6707,6.0366,-10.0000
1595878874,0.7901,-0.4016,-0.6041,-5.7317,8.5976,-6.6463
1595878874,0.7230,-0.3738,-0.6577,-6.8293,11.2195,-4.8780
1595878874,0.6577,-0.3586,-0.5997,-8.1098,11.2195,-6.1585
1595878874,0.6727,-0.3271,-0.5427,-8.8415,10.1829,-3.4756
1595878874,0.6903,-0.3016,-0.5031,-8.8415,7.9878,-0.5488
1595878874,0.6790,-0.3146,-0.4341,-7.8049,5.5488,0.4268
1595878874,0.6295,-0.3422,-0.4252,-5.1220,3.7195,1.5244
1595878874,0.6296,-0.3340,-0.5158,-1.9512,0.3659,2.3780
1595878874,0.7640,-0.3327,-0.6120,-0.3659,-7.0732,2.8049
1595878874,0.8243,-0.3425,-0.6901,-0.6098,-16.8902,0.5488
1595878874,0.8416,-0.3697,-0.7816,-1.9512,-22.6829,-0.9756
1595878874,0.8321,-0.3705,-0.8241,-5.1220,-25.2439,-2.9268
1595878874,0.8548,-0.3813,-0.7994,-9.5732,-25.6098,-4.6341
1595878874,0.8941,-0.3858,-0.8098,-14.9390,-23.8415,-4.8171
1595878874,0.8008,-0.3755,-0.7098,-18.2927,-20.1220,-4.5732
1595878874,0.6255,-0.3411,-0.5431,-20.1829,-17.0122,-4.3902
1595878874,0.5167,-0.2876,-0.5323,-17.0122,-5.6098,-3.7805
1595878874,0.6578,-0.3542,-0.5898,-14.4512,-2.8049,-1.5854
1595878874,0.8335,-0.3621,-0.5594,-14.9390,-14.8780,-4.6341
1595878874,0.7551,-0.3119,-0.5380,-11.8902,-18.1098,-8.2927
1595878874,0.7170,-0.3096,-0.5298,-9.2683,-13.7805,-10.0000
1595878875,0.7828,-0.3321,-0.5179,-7.0122,-14.3902,-11.7073
1595878875,0.7989,-0.3294,-0.5376,-3.9634,-16.8902,-13.4756
1595878875,0.8578,-0.3135,-0.6000,-0.4878,-15.9146,-13.9634
1595878875,0.8572,-0.2974,-0.6245,2.3780,-9.7561,-14.5122
1595878875,0.8102,-0.2932,-0.6304,4.5122,3.7195,-15.1220
1595878875,0.8521,-0.3073,-0.6403,7.5610,21.9512,-12.2561
1595878875,0.7863,-0.3266,-0.6494,10.1829,40.6098,-9.3293
1595878875,0.6313,-0.3088,-0.6687,10.0610,53.3537,-7.6829
1595878875,0.6155,-0.2717,-0.7040,7.2561,52.3171,-6.7683
1595878875,0.6860,-0.3218,-0.6365,2.8659,36.7073,-6.3415
1595878875,0.7413,-0.2978,-0.5375,-0.1829,14.2073,-7.5610
1595878875,0.6546,-0.2535,-0.5383,1.4024,4.5732,-8.5976
1595878875,0.6965,-0.2733,-0.5977,2.6829,-3.2317,-7.8659
1595878875,0.7130,-0.2816,-0.5814,2.6829,-14.3293,-8.0488
1595878875,0.6657,-0.2795,-0.5259,3.6585,-19.3293,-7.7439
1595878875,0.6678,-0.2990,-0.4836,4.6951,-21.5244,-4.6341
1595878875,0.6913,-0.3314,-0.4952,5.9146,-24.7561,-1.6463
1595878875,0.6763,-0.3253,-0.5427,7.5000,-26.7683,0.7927
1595878875,0.7272,-0.3174,-0.5676,9.0854,-27.7439,2.8049
1595878875,0.7900,-0.3198,-0.5823,10.7317,-28.3537,5.1220
1595878875,0.7711,-0.3215,-0.6046,11.7683,-23.6585,6.7683
1595878875,0.7706,-0.3432,-0.6385,12.7439,-15.3049,8.1098
1595878875,0.8155,-0.3582,-0.6559,13.2927,-13.7195,8.4146
1595878875,0.8201,-0.3500,-0.6700,12.9878,-15.3659,6.3415
1595878875,0.8568,-0.3248,-0.6932,11.5244,-16.5244,3.9634
1595878875,0.8001,-0.2780,-0.7419,9.8780,-16.4024,1.5244
1595878875,0.7889,-0.2634,-0.8008,7.8049,-14.2683,-0.3659
1595878875,0.8430,-0.3178,-0.7399,4.0854,-7.1341,-0.3049
1595878875,0.8338,-0.3176,-0.6761,1.5854,0.9756,-0.8537
1595878875,0.8331,-0.3038,-0.6660,1.0976,6.1585,-0.2439
1595878875,0.8171,-0.3304,-0.6762,1.2805,12.3171,-0.2439
1595878875,0.7847,-0.3258,-0.6561,0.6098,20.0000,-0.1829
1595878875,0.7332,-0.2994,-0.6505,1.2195,27.7439,0.7927
1595878875,0.7049,-0.2933,-0.6857,1.4024,32.7439,2.4390
1595878875,0.7134,-0.3085,-0.6752,0.0610,34.0244,3.3537
1595878875,0.7157,-0.3080,-0.6357,-0.6098,31.2195,3.4146
1595878875,0.7006,-0.2977,-0.6113,-0.3659,28.7195,3.7805
1595878875,0.6727,-0.3149,-0.6110,-0.4268,27.6829,4.0854
1595878875,0.7184,-0.3273,-0.5837,-1.0366,24.6951,4.5732
1595878875,0.7712,-0.3133,-0.5887,-0.1220,23.0488,5.6707
1595878875,0.6993,-0.2874,-0.6239,0.9756,24.2073,6.9512
1595878875,0.6502,-0.3013,-0.6182,0.9146,24.0854,7.8049
1595878875,0.6891,-0.3265,-0.6204,0.3659,20.7927,8.5976
1595878875,0.7526,-0.3369,-0.6129,0.4268,12.8049,8.4756
1595878875,0.8091,-0.3608,-0.6039,0.2439,5.3049,6.7683
1595878875,0.8053,-0.3649,-0.6000,1.5854,2.1341,5.0610
1595878875,0.7745,-0.3500,-0.5673,3.0488,1.6463,3.6585
1595878875,0.7435,-0.3270,-0.5605,4.6341,2.3171,2.0732
1595878875,0.7325,-0.3301,-0.5758,6.2195,2.5000,0.7317
1595878875,0.7416,-0.3331,-0.5771,6.5244,-2.2561,-0.2439
1595878875,0.7112,-0.3145,-0.5631,6.7683,-8.6585,-1.5244
1595878875,0.6967,-0.2955,-0.6407,7.1951,-13.7195,-2.0732
1595878875,0.7504,-0.3439,-0.6482,5.5488,-15.6707,-1.8293
1595878875,0.8018,-0.3809,-0.5737,3.3537,-16.2195,-2.5000
1595878875,0.8412,-0.3601,-0.5358,3.2927,-16.0366,-1.4024
1595878875,0.8126,-0.3459,-0.5793,3.3537,-10.7317,-0.3049
1595878875,0.7401,-0.3352,-0.5941,2.7439,-2.6829,-0.9146
1595878875,0.7568,-0.3369,-0.5567,2.9878,1.2195,-0.2439
1595878875,0.7814,-0.3471,-0.4985,4.4512,-1.0976,0.6707
1595878875,0.7708,-0.3448,-0.5078,6.2195,-0.6098,-0.1220
1595878875,0.7631,-0.3271,-0.5737,8.9024,-1.0976,-0.3659
1595878875,0.7206,-0.3199,-0.5652,10.6707,0.1220,-0.5488
1595878875,0.7242,-0.3118,-0.6301,11.7073,0.8537,1.1585
1595878875,0.6752,-0.3394,-0.5928,10.6707,-1.0366,2.5000
1595878875,0.8713,-0.3881,-0.6147,8.7805,-6.8902,3.7805
1595878875,0.7176,-0.3339,-0.6140,7.8049,-8.3537,5.2439
1595878875,0.8457,-0.4059,-0.5473,6.8902,-0.9756,5.8537
1595878875,1.0632,-0.3897,-0.6236,8.4146,-6.0976,8.1098
1595878875,0.9333,-0.3107,-0.6564,10.1220,6.2195,3.0488
1595878875,0.7898,-0.3028,-0.5812,12.8049,32.1341,5.4268
1595878875,0.6528,-0.3083,-0.4612,13.8415,46.8293,9.4512
1595878875,0.6667,-0.3267,-0.3967,15.3659,46.9512,12.8659
1595878875,0.6489,-0.2956,-0.4293,18.5976,40.4268,14.2683
1595878875,0.5710,-0.2760,-0.4882,20.4878,31.9512,14.6341
1595878875,0.6597,-0.3173,-0.5146,19.5732,19.3293,15.1829
1595878875,0.6889,-0.3251,-0.5757,18.9024,9.2683,17.3171
1595878875,0.7109,-0.3433,-0.6113,17.3780,6.5244,20.1829
1595878875,0.7280,-0.3655,-0.6193,14.5122,4.2683,21.8293
1595878875,0.6849,-0.3870,-0.6115,11.0366,6.8293,23.9634
1595878875,0.7493,-0.4063,-0.6345,7.8659,9.8171,26.7683
1595878875,0.6870,-0.3588,-0.6035,5.2439,12.1341,28.1707
1595878875,0.6556,-0.3927,-0.5606,3.9634,12.6220,29.4512
1595878875,0.7003,-0.4363,-0.5342,3.5366,3.5976,30.2439
1595878875,0.6816,-0.4310,-0.5261,5.0610,-4.9390,29.8171
1595878875,0.6970,-0.4422,-0.5396,7.0732,-12.1951,29.3902
1595878875,0.8222,-0.4697,-0.5333,8.6585,-23.2317,27.6220
1595878875,0.8332,-0.4331,-0.5397,10.7927,-30.6707,24.1463
1595878875,0.7032,-0.3879,-0.5386,13.3537,-26.4634,20.7927
1595878875,0.7524,-0.3937,-0.5233,15.1829,-23.1098,19.9390
1595878875,0.8161,-0.3952,-0.5107,16.6463,-26.5854,17.9878
1595878875,0.7958,-0.3838,-0.4885,18.7195,-24.6951,15.8537
1595878875,0.7598,-0.3651,-0.4669,21.5854,-17.5610,14.7561
1595878875,0.7554,-0.3358,-0.4879,25.0610,-9.8171,14.3902
1595878875,0.7032,-0.3264,-0.5694,28.6585,-6.0366,14.1463
1595878875,0.6591,-0.3495,-0.5892,29.7561,-8.6585,13.2927
1595878875,0.7043,-0.3772,-0.5919,28.7195,-18.1098,13.5366
1595878875,0.7192,-0.3749,-0.6388,27.6829,-24.3902,14.5732
1595878875,0.7090,-0.3842,-0.6146,25.4268,-21.7073,15.8537
1595878875,0.6765,-0.4022,-0.5065,23.1098,-17.7439,17.5610
1595878875,0.6191,-0.3962,-0.5203,23.2317,-12.9878,20.6707
1595878875,0.6113,-0.3964,-0.5573,22.9268,-9.6951,23.5976
1595878876,0.7133,-0.4167,-0.5419,22.1341,-13.3537,25.1829
1595878876,0.7189,-0.4371,-0.5518,23.2927,-13.7195,27.3780
1595878876,0.6512,-0.4500,-0.5777,24.4512,-6.3415,29.7561
1595878876,0.6052,-0.4398,-0.5649,23.9024,-2.0122,31.4634
1595878876,0.7220,-0.4537,-0.5741,22.8049,-4.0244,33.4756
1595878876,0.7925,-0.4708,-0.5927,21.2805,-7.1341,34.2073
1595878876,0.7433,-0.4692,-0.6011,20.4878,-2.6220,33.4756
1595878876,0.6208,-0.4497,-0.5774,19.8171,6.5854,34.0244
1595878876,0.5936,-0.4769,-0.5721,19.1463,10.9756,35.6707
1595878876,0.6201,-0.5416,-0.5904,18.8415,7.0732,37.5000
1595878876,0.5745,-0.6034,-0.6309,18.9634,3.4756,38.2317
1595878876,0.5464,-0.5565,-0.5732,17.9878,1.5244,39.4512
1595878876,0.5528,-0.4846,-0.4914,20.0000,0.4268,42.6829
1595878876,0.6263,-0.5111,-0.5245,23.2317,-0.9756,44.4512
1595878876,0.5738,-0.5179,-0.5973,26.2195,-8.3537,42.8049
1595878876,0.6341,-0.5497,-0.5517,27.2561,-13.9024,42.6829
1595878876,0.7490,-0.5659,-0.4628,27.4390,-20.1220,42.8049
1595878876,0.7198,-0.5488,-0.4527,28.4756,-17.2561,40.4878
1595878876,0.6953,-0.5659,-0.5360,29.8780,-8.5976,38.8415
1595878876,0.6445,-0.5393,-0.5564,30.2439,-4.0244,36.8293
1595878876,0.5963,-0.5157,-0.5424,31.2195,1.8293,35.7317
1595878876,0.7018,-0.5756,-0.5881,31.5854,2.9268,37.8049
1595878876,0.7416,-0.6046,-0.5880,31.0976,0.8537,36.8293
1595878876,0.6879,-0.6215,-0.5458,31.5854,5.3049,35.6707
1595878876,0.6907,-0.6436,-0.5398,33.0488,12.1341,37.0122
1595878876,0.6910,-0.6531,-0.5369,34.8171,19.6341,37.3171
1595878876,0.7021,-0.6625,-0.5389,35.0000,26.8293,36.0366
1595878876,0.7498,-0.6885,-0.6079,34.3902,32.6220,35.5488
1595878876,0.7219,-0.6877,-0.6457,33.7805,38.7805,33.6585
1595878876,0.6095,-0.6946,-0.5760,33.1098,45.4878,31.7073
1595878876,0.5439,-0.7435,-0.4818,32.0122,43.5976,31.8293
1595878876,0.5302,-0.7214,-0.4529,33.7195,36.8902,33.9024
1595878876,0.6608,-0.7444,-0.3204,27.9268,29.8780,34.5122
1595878876,0.5347,-0.6671,-0.3043,22.2561,18.5976,33.3537
1595878876,0.4148,-0.6662,-0.3954,24.2073,15.9756,32.4390
1595878876,0.5164,-0.7036,-0.4008,25.3049,12.4390,35.0000
1595878876,0.5595,-0.7109,-0.3068,26.2195,10.7927,36.7073
1595878876,0.5322,-0.7694,-0.3330,28.2927,17.3780,40.4878
1595878876,0.5312,-0.8192,-0.3713,30.1829,19.6951,40.9146
1595878876,0.5559,-0.8545,-0.3842,31.4634,15.4878,39.0244
1595878876,0.5123,-0.8619,-0.4207,30.6098,8.9634,36.2805
1595878876,0.5585,-0.8740,-0.3993,27.9878,3.0488,34.8780
1595878876,0.5562,-0.8522,-0.3711,25.6098,-2.2561,32.9878
1595878876,0.5016,-0.8313,-0.4213,24.5122,1.1585,32.1341
1595878876,0.4689,-0.8252,-0.4461,23.0488,7.9268,31.2195
1595878876,0.5317,-0.8511,-0.4161,20.8537,5.9756,30.0000
1595878876,0.5504,-0.8683,-0.4310,18.1098,1.7073,28.5366
1595878876,0.4267,-0.8395,-0.4208,17.0732,4.1463,26.8293
1595878876,0.4225,-0.8505,-0.3881,15.7317,2.1951,27.1951
1595878876,0.4719,-0.8665,-0.3421,14.1463,-5.4268,28.8415
1595878876,0.4981,-0.8416,-0.3666,14.5732,-11.9512,29.3293
1595878876,0.5098,-0.8391,-0.3856,14.6951,-12.0122,28.7195
1595878876,0.5491,-0.8641,-0.3845,14.0244,-9.6341,27.7439
1595878876,0.5211,-0.8544,-0.3134,14.8780,-7.2561,26.0366
1595878876,0.6318,-0.8587,-0.3587,15.7317,-10.6707,24.8171
1595878876,0.5992,-0.8577,-0.3657,14.7561,-6.7683,22.3780
1595878876,0.4956,-0.8343,-0.3565,14.5122,9.2073,17.6220
1595878876,0.4519,-0.8150,-0.3460,13.9634,16.4634,13.5976
1595878876,0.4290,-0.8118,-0.3472,14.0854,13.1098,10.0610
1595878876,0.4406,-0.8267,-0.3271,13.7195,8.5366,7.3171
1595878876,0.4669,-0.8496,-0.3315,13.5976,2.8659,5.1220
1595878876,0.4777,-0.8569,-0.3569,13.2317,-2.3780,2.8659
1595878876,0.4979,-0.8331,-0.3817,13.7805,-5.3659,1.7683
1595878876,0.4755,-0.7864,-0.3798,15.6098,-8.1098,0.9146
1595878876,0.5519,-0.7906,-0.3552,16.6463,-9.2683,1.0366
1595878876,0.5849,-0.7738,-0.3539,16.4634,-11.2805,2.1341
1595878876,0.5235,-0.7759,-0.3264,16.6463,-5.6707,2.8049
1595878876,0.5474,-0.8264,-0.3006,16.8293,6.7683,6.0366
1595878876,0.5538,-0.8303,-0.2928,18.3537,12.1341,6.3415
1595878876,0.4998,-0.8179,-0.2418,19.5122,16.7073,6.4634
1595878876,0.5163,-0.8176,-0.2380,19.6341,21.2805,8.8415
1595878876,0.5390,-0.7831,-0.2849,19.8780,21.4024,9.0854
1595878876,0.5101,-0.7693,-0.3105,20.4878,21.8293,7.6220
1595878876,0.4767,-0.8068,-0.2986,19.2073,24.2073,7.8049
1595878876,0.4752,-0.8074,-0.2687,17.0122,25.5488,9.3293
1595878876,0.5045,-0.7809,-0.2706,16.7683,28.3537,10.7927
1595878876,0.5219,-0.7800,-0.2710,15.8537,30.9756,11.9512
1595878876,0.4958,-0.7935,-0.2811,13.9634,32.0122,11.9512
1595878876,0.4561,-0.8152,-0.3068,12.1341,30.5488,13.3537
1595878876,0.4499,-0.8303,-0.3138,9.8780,22.6220,14.3902
1595878876,0.4887,-0.8240,-0.3062,9.3902,10.2439,14.9390
1595878876,0.5045,-0.8234,-0.3072,9.6951,0.3659,16.2805
1595878876,0.5010,-0.8314,-0.3167,8.7195,-7.1341,15.4268
1595878876,0.5003,-0.8284,-0.3276,8.2317,-13.6585,13.9024
1595878876,0.5031,-0.8165,-0.3263,8.6585,-16.0976,12.9878
1595878876,0.5242,-0.8160,-0.3256,8.9634,-15.7927,12.0732
1595878876,0.5437,-0.8186,-0.3326,8.9024,-13.9634,10.6098
1595878876,0.5369,-0.8156,-0.3311,8.2317,-9.6341,8.8415
1595878876,0.4881,-0.8145,-0.3448,7.1341,-3.6585,7.6220
1595878876,0.4594,-0.8141,-0.3448,5.4878,1.2805,6.6463
1595878876,0.4566,-0.8159,-0.3290,4.3902,3.7805,5.7927
1595878876,0.4469,-0.8364,-0.3159,2.9878,3.0488,5.7927
1595878876,0.3989,-0.8469,-0.2735,1.6463,0.8537,5.1829
1595878876,0.5072,-0.8937,-0.2799,1.8902,-4.1463,4.4512
1595878876,0.5568,-0.8345,-0.3096,3.2317,-10.7927,2.4390
1595878876,0.5409,-0.8088,-0.3221,5.4878,-9.5732,0.3659
1595878876,0.5347,-0.8218,-0.2908,5.3049,-4.5122,0.7927
1595878876,0.4880,-0.8505,-0.2350,5.5488,-0.8537,1.7683
1595878876,0.5663,-0.9738,-0.2387,4.6341,1.4634,2.1951
1595878876,0.5508,-0.9351,-0.2782,3.5366,2.5000,-0.0610
1595878877,0.5102,-0.8849,-0.3134,3.7805,7.9878,-2.4390
1595878877,0.5259,-0.8892,-0.3350,0.4878,13.1098,-3.5366
1595878877,0.5538,-0.8743,-0.3275,-1.5854,16.0366,-3.2927
1595878877,0.4840,-0.8472,-0.2611,-1.1585,21.5854,-2.5000
1595878877,0.4266,-0.8632,-0.2357,-0.9756,29.6951,0.1220
1595878877,0.4474,-0.8961,-0.2786,-2.9878,34.6951,1.5854
1595878877,0.4306,-0.8483,-0.2930,-4.5732,33.9634,0.6707
1595878877,0.3763,-0.8096,-0.2786,-2.3780,34.4512,1.4634
1595878877,0.4900,-0.8491,-0.3649,-1.3415,35.3659,2.7439
1595878877,0.5789,-0.8434,-0.3422,-3.9634,31.3415,0.9756
1595878877,0.5696,-0.8041,-0.3314,-3.8415,29.4512,-0.7317
1595878877,0.5750,-0.8436,-0.3862,-4.0244,36.7073,0.9756
1595878877,0.5003,-0.8584,-0.3747,-7.2561,40.1829,-0.6707
1595878877,0.3947,-0.8348,-0.2952,-7.7439,38.7195,-3.7195
1595878877,0.3661,-0.8219,-0.2437,-4.4512,38.2317,-4.8171
1595878877,0.4562,-0.8115,-0.2585,-3.3537,34.2683,-8.0488
1595878877,0.5242,-0.7985,-0.2368,-4.3902,25.6707,-11.4024
1595878877,0.4775,-0.7443,-0.2053,-4.6341,19.2683,-11.4634
1595878877,0.4492,-0.7557,-0.2094,-4.2683,19.2683,-8.5366
1595878877,0.5202,-0.8207,-0.2055,-6.0976,22.9878,-7.1341
1595878877,0.5597,-0.8268,-0.2108,-4.2683,29.6951,-7.1951
1595878877,0.5328,-0.8196,-0.2255,-0.3659,40.9146,-6.8902
1595878877,0.4866,-0.8118,-0.2321,0.6098,54.6341,-6.4024
1595878877,0.4489,-0.7935,-0.2645,0.5488,64.0854,-4.0854
1595878877,0.4091,-0.8009,-0.2626,-1.2195,63.2927,-2.9268
1595878877,0.4074,-0.8005,-0.2224,-4.2073,51.1585,-3.3537
1595878877,0.4128,-0.7824,-0.2145,-3.5366,37.4390,-3.0488
1595878877,0.3741,-0.8004,-0.1865,-3.9634,30.8537,-1.5854
1595878877,0.4143,-0.8130,-0.1925,-5.3049,29.4512,-1.3415
1595878877,0.4671,-0.8391,-0.1362,-5.3659,24.6951,0.7927
1595878877,0.5076,-0.8323,-0.1032,-3.7805,17.9268,2.4390
1595878877,0.5274,-0.8316,-0.1912,-0.6098,18.4756,2.2561
1595878877,0.5408,-0.8387,-0.2430,-1.7073,24.0244,-0.6098
1595878877,0.5786,-0.8080,-0.2539,-0.9756,32.5000,-3.1098
1595878877,0.5684,-0.8195,-0.2333,0.9146,43.2317,-0.8537
1595878877,0.5610,-0.8387,-0.2137,-0.6707,51.1585,1.1585
1595878877,0.5261,-0.8184,-0.2028,1.5854,57.7439,0.4878
1595878877,0.4443,-0.8098,-0.2100,3.4146,62.8049,1.7073
1595878877,0.4487,-0.8026,-0.1981,1.3415,59.8781,1.9512
1595878877,0.4613,-0.7960,-0.1452,2.7439,52.1951,1.3415
1595878877,0.4396,-0.8293,-0.1093,5.0000,46.4634,1.3415
1595878877,0.4871,-0.8444,-0.0959,5.0000,41.1585,3.5976
1595878877,0.5289,-0.8455,-0.0905,5.6098,31.8902,4.2073
1595878877,0.4564,-0.8085,-0.0727,5.7927,23.1098,4.3293
1595878877,0.4303,-0.7935,-0.0591,5.0610,15.0610,9.1463
1595878877,0.5653,-0.8318,-0.0723,5.2439,2.6829,10.7317
1595878877,0.6610,-0.8585,-0.0999,6.2195,-6.8293,9.6951
1595878877,0.6611,-0.8527,-0.1174,6.2805,-3.2927,10.5488
1595878877,0.6069,-0.8505,-0.1096,5.4268,7.8049,11.4024
1595878877,0.5726,-0.8599,-0.1029,4.7561,15.7927,12.1341
1595878877,0.5848,-0.8668,-0.0977,4.2073,17.6829,13.1098
1595878877,0.6078,-0.8477,-0.0888,4.2683,16.7073,11.7683
1595878877,0.6207,-0.8531,-0.0891,4.1463,15.7317,9.8171
1595878877,0.6130,-0.8751,-0.0816,2.5000,15.6707,8.1098
1595878877,0.5801,-0.8633,-0.0827,3.2317,16.7683,7.0122
1595878877,0.5408,-0.8445,-0.0988,5.1220,18.2317,6.0366
1595878877,0.4981,-0.8368,-0.1172,5.6707,17.9878,4.1463
1595878877,0.4845,-0.8394,-0.1252,5.9756,16.0366,2.9878
1595878877,0.5068,-0.8387,-0.1246,6.8902,13.4756,3.0488
1595878877,0.5465,-0.8438,-0.1257,7.3780,10.4268,2.3780
1595878877,0.5760,-0.8548,-0.1302,7.6220,10.6707,0.2439
1595878877,0.5760,-0.8514,-0.1675,7.5000,17.5000,-0.2439
1595878877,0.5844,-0.8382,-0.1785,7.8659,29.2683,0.3049
1595878877,0.5724,-0.8202,-0.1637,9.6341,41.8902,0.2439
1595878877,0.5390,-0.8146,-0.1464,11.2195,52.1951,-0.4878
1595878877,0.5009,-0.8327,-0.1287,10.1220,58.4146,-1.7073
1595878877,0.4695,-0.8440,-0.1224,8.2317,56.8293,-3.2317
1595878877,0.4341,-0.8420,-0.1116,7.0122,48.2927,-4.3293
1595878877,0.4108,-0.8407,-0.1054,5.9756,34.6951,-4.7561
1595878877,0.4221,-0.8439,-0.1105,5.8537,17.8659,-5.0000
