time,ax,ay,az,gx,gy,gz
1595877718,0.3298,0.9114,0.3210,0.1829,-0.8537,-0.1220
1595877718,0.3310,0.9185,0.3208,0.0610,-0.7317,0.1220
1595877718,0.3273,0.9166,0.3181,0.0610,-0.5488,0.1220
1595877718,0.3263,0.9187,0.3167,0.1220,-0.3659,0.1220
1595877718,0.3267,0.9200,0.3168,0.1220,-0.2439,0.0610
1595877718,0.3250,0.9208,0.3160,0.1829,-0.3049,0.0000
1595877718,0.3267,0.9217,0.3167,0.1220,-0.4878,-0.1220
1595877718,0.3292,0.9233,0.3198,0.0610,-0.6098,-0.0610
1595877718,0.3267,0.9224,0.3163,0.1220,-0.4268,-0.3049
1595877718,0.3270,0.9187,0.3143,0.2439,-0.3659,-0.3049
1595877718,0.3244,0.9185,0.3142,0.2439,-0.3659,-0.1220
1595877718,0.3247,0.9203,0.3149,0.1829,-0.3659,0.0000
1595877718,0.3242,0.9211,0.3164,0.1829,-0.4878,0.1220
1595877718,0.3249,0.9175,0.3171,0.0610,-0.6707,0.0000
1595877718,0.3244,0.9152,0.3176,0.1829,-0.7317,0.0610
1595877718,0.3236,0.9144,0.3161,0.1829,-0.6707,-0.0610
1595877718,0.3254,0.9163,0.3175,0.3049,-0.6707,-0.1829
1595877718,0.3261,0.9151,0.3188,0.3049,-0.7317,-0.3049
1595877718,0.3281,0.9178,0.3163,0.3659,-0.5488,-0.4268
1595877718,0.3306,0.9175,0.3162,0.4878,-0.4878,-0.4268
1595877718,0.3312,0.9169,0.3152,0.4878,-0.4878,-0.4878
1595877718,0.3315,0.9174,0.3163,0.4878,-0.6098,-0.4878
1595877719,0.3328,0.9166,0.3170,0.4878,-0.6098,-0.3049
1595877719,0.3313,0.9186,0.3171,0.6098,-0.4268,-0.2439
1595877719,0.3304,0.9186,0.3185,0.4878,-0.3659,-0.0610
1595877719,0.3276,0.9185,0.3179,0.5488,-0.3049,0.0610
1595877719,0.3261,0.9197,0.3165,0.6098,-0.1220,0.0610
1595877719,0.3271,0.9190,0.3168,0.6098,-0.0610,0.0610
1595877719,0.3237,0.9216,0.3161,0.6098,-0.1220,0.0000
1595877719,0.3248,0.9219,0.3174,0.5488,-0.2439,0.0000
1595877719,0.3235,0.9191,0.3164,0.4878,-0.3659,-0.0610
1595877719,0.3246,0.9197,0.3169,0.5488,-0.3659,-0.1829
1595877719,0.3289,0.9202,0.3199,0.4878,-0.5488,-0.3049
1595877719,0.3300,0.9199,0.3170,0.5488,-0.2439,-0.2439
1595877719,0.3301,0.9194,0.3148,0.5488,-0.0610,-0.1829
1595877719,0.3289,0.9195,0.3151,0.3659,-0.1829,-0.2439
1595877719,0.3280,0.9183,0.3170,0.3659,-0.3049,-0.1829
1595877719,0.3257,0.9236,0.3148,0.2439,-0.4268,-0.3659
1595877719,0.3264,0.9208,0.3129,0.3049,-0.6707,-0.3659
1595877719,0.3282,0.9146,0.3185,0.2439,-1.2195,-0.1829
1595877719,0.3280,0.9163,0.3185,0.1220,-1.2805,-0.1829
1595877719,0.3311,0.9161,0.3174,0.0610,-1.3415,-0.1829
1595877719,0.3317,0.9173,0.3195,0.0000,-1.3415,-0.4268
1595877719,0.3362,0.9152,0.3190,0.0610,-1.2805,-0.3049
1595877719,0.3364,0.9143,0.3188,0.1220,-0.9756,-0.3049
1595877719,0.3369,0.9166,0.3182,0.1829,-0.8537,-0.2439
1595877719,0.3427,0.9188,0.3071,0.1829,-0.1829,-0.1829
1595877719,0.3317,0.9172,0.3292,-0.0610,0.9756,-0.6707
1595877719,0.3384,0.9235,0.2974,-0.1829,-1.3415,-0.7927
1595877719,0.3401,0.9283,0.3018,0.2439,-1.5244,-0.9756
1595877719,0.3103,0.9221,0.2994,0.7317,-1.1585,-0.5488
1595877719,0.2968,0.9410,0.2986,1.0976,-1.4024,-0.3659
1595877719,0.2811,0.9435,0.3029,0.9146,-2.5610,-1.2195
1595877719,0.2786,0.9338,0.3120,0.3049,-5.4878,-2.0122
1595877719,0.2528,0.9162,0.3135,-2.3171,-16.0366,-4.6951
1595877719,0.1001,0.9352,0.3030,-1.2805,-36.8902,-11.5854
1595877719,0.0834,0.9348,0.2932,-1.8293,-46.5244,-15.5488
1595877719,0.1003,0.9402,0.3090,-2.0122,-58.8415,-19.6341
1595877719,0.1181,0.9694,0.3616,-3.1098,-69.9390,-24.1463
1595877719,-0.1494,1.0286,0.5037,-18.5976,-85.4878,-44.8171
1595877719,-0.1272,1.0449,0.4547,-22.2561,-108.4146,-48.9024
1595877719,-0.0193,1.0035,0.4961,-35.7927,-174.5732,-55.6707
1595877719,0.0335,0.9973,0.6217,-41.5854,-189.4512,-64.2683
1595877719,0.0502,1.0348,0.8699,-50.2439,-180.8537,-75.3049
1595877719,0.0703,1.0609,1.1236,-58.8415,-159.3902,-79.8781
1595877719,0.1378,1.1224,1.1937,-64.3902,-151.6463,-80.1829
1595877719,0.2341,1.1777,1.2797,-71.4024,-147.5000,-78.7805
1595877719,0.1688,1.2112,1.4087,-99.6951,-110.3659,-72.9268
1595877719,0.2680,1.3773,1.1844,-152.3781,-138.9634,-75.4268
1595877719,0.3432,1.4155,1.1490,-166.4024,-151.5854,-73.5976
1595877720,0.3762,1.4149,1.0487,-191.1585,-168.1707,-65.6098
1595877720,0.4182,1.4098,0.9961,-201.8902,-178.2317,-57.6220
1595877720,0.4405,1.4756,0.6929,-224.7561,-220.3659,-26.8902
1595877720,0.4427,1.4750,0.6564,-230.4878,-235.7927,-15.4268
1595877720,0.5314,1.2748,0.2387,-233.9634,-301.0976,33.0488
1595877720,0.5101,1.2325,0.1681,-229.2073,-311.7073,45.3049
1595877720,0.5187,1.1990,0.1363,-223.1707,-323.4756,58.1098
1595877720,0.6349,0.7310,-0.0840,-97.1951,-172.3781,128.4756
1595877720,0.5518,0.5667,-0.2477,-74.4512,-144.0854,129.8781
1595877720,0.5937,0.4634,-0.2970,-63.7805,-134.6342,129.0244
1595877720,0.6027,0.2957,-0.3628,1.2195,-82.4390,105.1829
1595877720,0.6417,0.2203,-0.4288,7.8049,-84.1463,101.8902
1595877720,0.7896,0.2748,-0.5180,53.9024,-72.3781,67.4390
1595877720,0.7676,0.2543,-0.5228,63.9634,-63.9024,62.9878
1595877720,0.7577,0.2220,-0.5897,76.3415,-56.7683,56.4024
1595877720,0.8006,0.2295,-0.6437,82.0732,-60.0000,53.1098
1595877720,0.8350,0.2590,-0.6925,88.9024,-65.6098,49.2073
1595877720,0.8913,0.2912,-0.7137,97.0122,-74.2683,44.1463
1595877720,0.9651,0.3170,-0.6859,105.8537,-83.5366,38.5366
1595877720,0.9976,0.3838,-0.5640,126.8293,-85.4878,30.0000
1595877720,0.9557,0.4183,-0.5372,136.8293,-77.1951,27.5610
1595877720,0.9315,0.4412,-0.5809,145.7317,-68.2317,26.0976
1595877720,0.9609,0.4392,-0.6523,153.7805,-64.2073,25.3659
1595877720,0.9973,0.5627,-0.5187,200.8537,-47.9878,19.9390
1595877720,0.9242,0.6102,-0.5777,205.3049,-45.0000,22.1341
1595877720,1.0018,0.7220,-0.5525,222.7439,-41.8293,21.4634
1595877720,0.9666,0.7063,-0.3704,246.8902,-54.0854,24.6951
1595877720,0.8998,0.6787,-0.5381,244.4512,-83.5366,31.2805
1595877720,0.8928,0.8197,-0.6553,246.5244,-97.3781,20.8537
1595877720,0.9705,0.8213,-0.6843,249.6342,-96.8293,11.8293
1595877720,0.9207,0.6683,-0.4100,261.9512,-59.3293,-4.2683
1595877720,1.0382,0.7279,-0.4296,255.8537,-70.8537,-8.8415
1595877720,1.1713,0.8068,-0.3264,261.0976,-69.6951,-18.9024
1595877720,1.2858,0.6661,0.2524,296.6464,7.1341,-29.4512
1595877720,1.0411,0.6350,-0.2869,271.6464,16.0366,-6.0976
1595877720,1.1260,0.7076,-0.1981,275.5488,-2.9268,-3.2927
1595877720,1.2846,0.5563,0.1252,286.3415,-61.0366,31.5854
1595877720,1.4255,0.5248,0.1504,283.4756,-79.5732,41.7073
1595877720,1.2264,0.8558,0.5092,280.9756,-89.9390,47.4390
1595877720,1.4530,1.0209,-0.8182,143.9634,-405.0000,64.7561
1595877720,1.9999,-1.9999,-1.9999,-107.6829,-462.9268,5.0000
1595877720,1.9766,-0.6874,0.9976,-222.6220,-283.4756,169.4512
1595877720,1.9711,0.1646,1.2032,198.6585,-85.4878,23.3537
1595877720,1.4089,0.4879,0.1249,13.1098,52.0732,6.7073
1595877720,-0.7679,0.2344,-0.9558,98.4146,229.2073,0.4878
1595877720,0.6894,-0.4230,-0.5999,52.6220,90.0000,-58.4756
1595877720,1.0917,-0.3361,-0.6024,42.1951,-44.1463,-17.0122
1595877720,1.3098,-0.7329,-0.2186,42.7439,-56.4024,60.0610
1595877720,1.0189,-0.5678,-0.1630,30.9756,-15.4878,48.7805
1595877720,1.0424,-0.3714,-0.0945,38.7195,15.2439,36.2195
1595877720,1.0136,-0.4125,-0.1179,39.6951,26.7683,20.2439
1595877720,0.7369,-0.4060,-0.1057,24.1463,37.7439,13.8415
1595877720,0.8030,-0.3675,-0.0834,22.6829,29.0244,12.5610
1595877720,0.8617,-0.3554,-0.0845,18.6585,19.1463,9.7561
1595877720,0.9880,-0.3577,-0.2076,9.6951,6.9512,13.5366
1595877720,0.9907,-0.3742,-0.2021,10.7927,6.7073,12.9878
1595877720,0.9639,-0.3771,-0.1871,10.8537,8.1707,12.4390
1595877720,0.9206,-0.3734,-0.1759,10.9756,10.1220,13.5366
1595877721,0.8051,-0.3298,-0.1541,8.9024,9.8171,16.7683
1595877721,0.8277,-0.3324,-0.1606,5.3659,6.9512,17.5000
1595877721,0.8716,-0.3632,-0.1337,3.4756,1.5854,17.1341
1595877721,0.9215,-0.4034,-0.1205,4.0854,-2.1951,18.1707
1595877721,0.9774,-0.4080,-0.1215,6.0366,-5.4268,18.1098
1595877721,0.9903,-0.3821,-0.1252,8.7195,-7.3171,17.9878
1595877721,0.9635,-0.3630,-0.1392,10.9146,-4.9390,17.5610
1595877721,0.9295,-0.3422,-0.1524,11.4634,-1.0366,16.6463
1595877721,0.9008,-0.3196,-0.1486,11.5854,1.3415,16.2195
1595877721,0.8685,-0.3189,-0.1227,10.9146,2.8659,16.2195
1595877721,0.8251,-0.4940,-0.0982,2.5610,7.0122,10.5488
1595877721,0.7802,-0.4589,-0.0892,0.9146,6.8902,8.8415
1595877721,0.7150,-0.4022,-0.0849,-1.5244,7.8049,7.7439
1595877721,0.6821,-0.3802,-0.1014,-4.5732,5.9756,5.6707
1595877721,0.8155,-0.4178,-0.1585,-11.2805,-10.4878,1.0976
1595877721,0.9764,-0.3697,-0.1263,-10.3659,-18.2927,-0.7927
1595877721,0.7195,-0.3575,-0.2573,-10.5488,13.2927,0.6707
1595877721,0.8075,-0.4731,-0.1093,-8.8415,-12.6220,4.3902
1595877721,0.8865,-0.4805,-0.0780,-9.0244,-22.1341,4.9390
1595877721,0.9323,-0.4362,-0.1205,-9.3293,-19.3902,5.0610
1595877721,0.9578,-0.4213,-0.1563,-10.6707,-15.1829,3.1098
1595877721,0.9166,-0.3948,-0.2021,-10.9146,-11.2195,1.4634
1595877721,0.8674,-0.4026,-0.2286,-11.3415,-3.5366,-0.1220
1595877721,0.8829,-0.3728,-0.2123,-10.0000,9.4512,-7.4390
1595877721,0.9446,-0.4550,-0.2509,-10.9756,2.3780,-6.3415
1595877721,0.8987,-0.4734,-0.2198,-15.6098,9.0854,-9.0854
1595877721,0.9325,-0.4396,-0.1582,-11.8293,9.2683,-5.9146
1595877721,1.0157,-0.4330,-0.1826,-11.0366,0.9146,-0.6707
1595877721,0.9965,-0.4136,-0.1929,-10.9756,-2.3780,-0.1829
1595877721,0.9083,-0.3955,-0.2285,-11.8293,-4.7561,0.4878
1595877721,0.8206,-0.3870,-0.2905,-14.8171,10.0000,-2.5000
1595877721,0.8409,-0.4132,-0.2623,-13.0488,17.0122,-0.5488
1595877721,0.8536,-0.4370,-0.2173,-11.9512,10.4268,0.6707
1595877721,0.8811,-0.4291,-0.1957,-9.9390,1.4024,1.7073
1595877721,0.9482,-0.4137,-0.1735,-8.0488,-10.9756,3.4146
1595877721,0.9403,-0.3931,-0.1867,-8.5976,-7.5000,1.8902
1595877721,0.9430,-0.3716,-0.1912,-8.5366,-1.8902,0.7927
1595877721,0.9376,-0.3574,-0.1940,-7.9878,0.1829,-0.4268
1595877721,0.8578,-0.3167,-0.2498,-5.3659,1.2805,-2.3171
1595877721,0.8293,-0.2805,-0.2409,-4.0244,0.7927,-2.7439
1595877721,0.7921,-0.2462,-0.2200,-1.5244,-0.1220,-3.6585
1595877721,0.7629,-0.2296,-0.1909,-0.1220,0.3049,-4.9390
1595877721,0.7404,-0.2332,-0.1029,-1.4634,2.8659,-8.5366
1595877721,0.6888,-0.2130,-0.0659,-2.9268,7.6829,-10.4878
1595877721,0.6506,-0.2166,-0.0562,-4.3902,12.9268,-12.8659
1595877721,0.6388,-0.2358,-0.0549,-7.0122,14.2073,-15.7317
1595877721,0.6270,-0.2305,-0.0683,-10.5488,10.4878,-17.5000
1595877721,0.9572,-0.3118,-0.0631,-19.6341,-23.3537,-28.5976
1595877721,1.1001,-0.1537,-0.2694,-23.2317,53.7805,-33.5366
1595877721,1.1101,-0.1221,-0.1895,-17.1341,67.9268,-29.4512
1595877721,1.1328,-0.0538,-0.3406,-9.6951,82.9878,-1.0976
1595877721,1.0162,-0.0249,-0.3704,-5.3049,104.0854,1.4024
1595877721,0.8366,-0.1014,-0.4414,-1.0366,120.7927,4.2073
1595877721,0.6420,-0.2479,-0.4227,3.5366,118.0488,5.1220
1595877721,0.5615,-0.3755,-0.3152,24.2073,63.2927,1.2195
1595877721,0.5989,-0.3621,-0.2744,32.8659,28.9024,-7.1951
1595877721,0.5925,-0.2881,-0.2839,40.0000,2.0122,-13.7195
1595877721,0.9102,0.0031,0.0734,63.2927,-33.0488,-24.5122
1595877721,0.8963,-0.1214,0.0557,54.0854,-12.9268,-24.2073
1595877721,0.7111,-0.2655,-0.2661,26.7073,57.6829,-27.0122
1595877721,0.5870,-0.2961,-0.2667,18.0488,52.5000,-27.1951
1595877721,0.5922,-0.1934,-0.2421,1.9512,23.8415,-45.2439
1595877721,0.7615,-0.0366,-0.0900,-8.5366,-12.5610,-79.6341
1595877722,0.8608,0.0114,-0.1108,-11.3415,-9.6341,-91.1585
1595877722,0.9012,0.0507,-0.1528,-12.6220,-5.0000,-99.0244
1595877722,0.9225,0.1414,0.1039,-9.9390,-9.8171,-118.9634
1595877722,0.9656,0.1763,0.1801,-13.2317,-9.5732,-127.1341
1595877722,1.0226,0.2304,0.2083,-18.2927,-7.5000,-135.5488
1595877722,1.0614,0.2682,0.1745,-27.0122,-1.0976,-144.5732
1595877722,1.0847,0.2921,0.1193,-38.1707,8.2317,-153.4146
1595877722,1.0839,0.3032,0.0584,-49.6951,18.5366,-162.1342
1595877722,1.0743,0.3206,-0.0100,-60.5488,29.5732,-170.2439
1595877722,1.0749,0.3459,-0.0934,-69.6951,43.1707,-178.2927
1595877722,1.0596,0.3718,-0.1485,-75.6098,52.8049,-186.2195
1595877722,1.3705,0.5649,0.1846,-90.5488,40.7317,-206.4634
1595877722,1.4918,0.5906,0.3858,-103.0488,54.5122,-213.6585
1595877722,1.5391,0.5474,0.4661,-124.1463,92.1951,-219.9390
1595877722,1.5186,0.4711,0.2955,-158.4146,198.3537,-227.8049
1595877722,1.2257,0.5072,0.2145,-157.1342,236.0366,-227.2561
1595877722,0.8793,0.5989,0.1392,-144.1463,244.5122,-227.5610
1595877722,0.7030,0.7126,0.0675,-128.4146,220.0000,-233.6585
1595877722,0.6776,0.8268,0.0477,-118.5976,164.2683,-243.0488
1595877722,0.8541,0.8660,0.0984,-114.6951,-31.4024,-262.9268
1595877722,0.9359,0.8777,0.1589,-114.3293,-77.3781,-265.3658
1595877722,1.0626,0.9194,0.2241,-114.8781,-112.9268,-265.4878
1595877722,1.1740,0.9759,0.2741,-117.9878,-138.3537,-264.5122
1595877722,1.1522,0.9546,0.3149,-129.4512,-150.6707,-254.2073
1595877722,1.0812,0.9308,0.3104,-127.4390,-139.5122,-251.2195
1595877722,1.0331,0.9234,0.2878,-124.2683,-128.9024,-247.5000
1595877722,0.9608,0.8716,0.1895,-119.8781,-88.5976,-233.8415
1595877722,0.9003,0.8580,0.1672,-114.3293,-67.7439,-231.7073
1595877722,0.8215,0.8535,0.1538,-106.4634,-45.9146,-231.0366
1595877722,0.7480,0.8663,0.1538,-98.2317,-26.6463,-231.0366
1595877722,0.6215,0.9316,0.2022,-71.4024,-2.5000,-230.6707
1595877722,0.6008,0.9649,0.2252,-61.4024,-5.2439,-229.2073
1595877722,0.5881,1.0030,0.2497,-52.3781,-10.7317,-226.4025
1595877722,0.5822,1.0354,0.2693,-44.1463,-17.3780,-222.0732
1595877722,0.5695,1.0569,0.2848,-36.5854,-23.5366,-216.4634
1595877722,0.5627,1.0676,0.2944,-29.7561,-28.9634,-209.8171
1595877722,0.5447,1.0938,0.3090,-19.6951,-36.8293,-192.5000
1595877722,0.5392,1.1017,0.3044,-16.3415,-39.8780,-182.1342
1595877722,0.5225,1.0945,0.2889,-11.4024,-44.2073,-159.3902
1595877722,0.5014,1.0807,0.2764,-9.9390,-44.5732,-146.8902
1595877722,0.4634,1.0541,0.2560,-7.9878,-44.8171,-133.7805
1595877722,0.4210,1.0204,0.2307,-5.8537,-45.7927,-120.5488
1595877722,0.3795,0.9860,0.2106,-3.1098,-48.9634,-107.5610
1595877722,0.3450,0.9538,0.2004,0.0000,-54.2073,-95.1220
1595877722,0.2820,0.8925,0.3052,4.8171,-77.3171,-62.3781
1595877723,0.2737,0.8743,0.3578,3.4146,-84.5122,-53.7195
1595877723,0.2433,0.8459,0.3782,0.4878,-90.0000,-45.7317
1595877723,0.2985,0.8228,0.3380,4.3902,-116.9512,-29.0244
1595877723,0.3345,0.8237,0.3142,4.3902,-124.6341,-25.1220
1595877723,0.4100,0.8234,0.3615,6.1585,-112.0732,-17.2561
1595877723,0.3281,0.8160,0.4487,14.4512,-63.9024,0.0000
1595877723,0.3195,0.8369,0.4508,15.6098,-60.2439,1.8902
1595877723,0.3340,0.9973,0.5101,14.6951,-50.7927,5.2439
1595877723,0.3115,1.0055,0.5134,12.3171,-44.5122,7.5000
1595877723,0.2849,0.9926,0.4541,7.3780,-46.6463,14.8780
1595877723,0.3149,1.0718,0.3950,3.1707,-50.1220,18.7805
1595877723,0.3431,1.1667,0.3984,0.0000,-42.6220,19.8780
1595877723,0.3380,1.1702,0.3948,-1.4024,-34.6341,19.2073
1595877723,0.3453,1.0901,0.3684,-3.7805,-32.3171,18.4756
1595877723,0.3533,1.0743,0.3594,-5.9756,-31.2195,19.4512
1595877723,0.3303,1.0312,0.3350,-7.1341,-28.7195,23.7805
1595877723,0.3525,0.7959,0.2066,-1.0366,-8.5976,36.4024
1595877723,0.3596,0.7794,0.2067,-0.7927,-6.7683,36.1585
1595877723,0.3661,0.7626,0.2111,0.5488,-1.8902,33.9024
1595877723,0.3637,0.7890,0.2313,2.0122,2.9268,30.1829
1595877723,0.3810,0.8118,0.2375,1.1585,4.3902,27.5610
1595877723,0.4006,0.8254,0.2222,-0.9756,4.3902,24.0854
1595877723,0.4059,0.8922,0.2045,-5.9756,-1.0366,17.1951
1595877723,0.3896,0.9473,0.1980,-10.3049,-3.6585,13.1098
1595877723,0.3956,0.9474,0.2217,-15.1220,-20.6098,7.8659
1595877723,0.3944,0.9391,0.2235,-14.8171,-22.3780,7.0122
1595877723,0.3718,0.8878,0.3517,-8.4146,-8.6585,-17.3780
1595877723,0.3640,0.9960,0.3824,-11.1585,-1.8293,-23.0488
1595877723,0.3121,1.1021,0.3384,-14.8780,-9.5122,-44.7561
1595877723,0.3121,1.0817,0.3461,-15.1829,-16.4634,-49.2683
1595877723,0.3174,1.0460,0.3658,-15.7927,-23.8415,-53.6585
1595877723,0.3860,0.9871,0.4487,-16.7073,-39.8171,-59.5732
1595877724,0.3835,0.9881,0.4494,-7.3171,-26.8293,-31.0366
1595877724,0.3741,0.9771,0.4519,-6.2805,-21.7683,-25.7317
1595877724,0.3541,0.9613,0.4537,-5.4878,-16.0366,-20.2439
1595877724,0.2913,0.9229,0.4595,-4.7561,-7.8049,-7.9268
1595877724,0.2718,0.9072,0.4520,-5.3049,-7.0732,-1.9512
1595877724,0.2625,0.8874,0.4304,-7.9268,-11.0976,9.0854
1595877724,0.2720,0.8879,0.4203,-9.3902,-13.3537,13.2317
1595877724,0.2814,0.8850,0.4217,-10.9146,-15.6707,16.2195
1595877724,0.2729,0.8692,0.4096,-13.9634,-18.5976,22.2561
1595877724,0.2562,0.8441,0.3949,-15.6707,-17.0732,24.0244
1595877724,0.2200,0.7852,0.3618,-17.8659,-19.8780,30.1829
1595877724,0.3328,0.8064,0.3683,-6.4024,-62.4390,34.8171
1595877724,0.3765,0.8020,0.3815,-2.1951,-69.6951,34.5732
1595877724,0.4634,0.7764,0.4025,2.9268,-58.9634,37.1341
1595877724,0.6173,0.7521,0.3217,11.5854,-57.9878,44.5732
1595877724,0.6354,0.7288,0.3539,9.9390,-45.4268,48.4756
1595877724,0.6473,0.6741,0.3468,9.3293,-11.0366,56.3415
1595877724,0.6955,0.6296,0.2995,11.8902,-9.6951,63.4146
1595877724,0.7156,0.6033,0.2479,20.6098,-24.3293,68.9024
1595877724,0.7646,0.6592,0.3167,18.3537,4.2683,58.9634
1595877724,0.7198,0.6782,0.2465,18.2317,15.1220,52.4390
1595877724,0.7239,0.6960,0.1807,20.9756,7.9268,44.3293
1595877724,0.7294,0.7056,0.2041,21.4024,5.1829,42.1951
1595877724,0.7000,0.7057,0.2324,19.6341,8.3537,38.5976
1595877724,0.6626,0.7381,0.1320,22.5610,10.6707,34.3902
1595877724,0.6136,0.7691,0.0635,26.8902,3.8415,27.9268
1595877724,0.6247,0.8063,0.1730,26.8293,1.4634,15.9146
1595877724,0.5831,0.8184,0.2269,25.8537,2.3780,8.5366
1595877724,0.5223,0.8379,0.2218,25.5488,6.6463,3.6585
1595877724,0.5361,0.8773,0.1058,22.4390,9.8780,-8.6585
1595877724,0.5471,0.9658,0.0632,14.0854,-17.1341,-34.5122
1595877724,0.6559,1.0104,0.1038,9.4512,-9.6341,-23.5366
1595877724,0.5035,0.9306,0.0728,14.2683,22.1341,-14.8171
1595877724,0.5657,0.9235,0.0612,17.1951,13.2317,-12.7439
1595877724,0.6227,0.9138,0.0782,24.9390,0.6098,-6.4634
1595877724,0.5005,0.8346,0.0150,37.6220,-38.0488,9.6341
1595877724,0.4972,0.8134,-0.0192,36.5854,-57.1341,9.7561
1595877724,0.5460,0.8041,-0.0226,36.3415,-67.1341,8.2927
1595877724,0.5271,0.7995,-0.0151,35.6707,-73.1098,7.3171
1595877724,0.4656,0.7993,-0.0074,34.6341,-74.8781,6.5854
1595877724,0.5273,0.7643,-0.0396,29.4512,-92.3171,0.1220
1595877724,0.6807,0.7750,-0.0244,30.0000,-88.0488,-2.3171
1595877724,0.5917,1.0031,0.1019,23.7195,-27.0732,-10.9146
1595877724,0.6701,0.8380,0.1218,8.9024,-76.5854,-7.8049
1595877724,0.6990,0.8863,0.0742,12.3171,-61.7683,-12.0122
1595877724,0.7289,0.8773,0.0226,9.4512,-38.7805,-12.2561
1595877725,0.8743,0.8434,0.0767,5.4878,-61.8902,-14.1463
1595877725,0.8079,0.8445,0.0203,2.3780,-53.5366,-14.6341
1595877725,0.7130,0.8969,0.0303,3.1098,-33.4756,-12.8659
1595877725,0.6625,0.8807,0.0366,0.5488,-11.7073,-11.6463
1595877725,0.5370,0.8769,0.0249,-1.9512,10.0610,-14.5122
1595877725,0.5427,0.9127,0.0231,1.2805,21.5244,-18.1098
1595877725,0.8019,0.8315,-0.0846,1.0366,25.4268,-24.3902
1595877725,0.7567,0.8095,-0.1991,3.4146,37.5610,-20.5488
1595877725,0.7211,0.8182,-0.2099,7.8659,39.3902,-14.4512
1595877725,0.5168,0.8048,-0.0758,9.1463,30.9146,-7.4390
1595877725,0.6205,0.8096,-0.0671,7.1341,34.4512,-7.3780
1595877725,0.8096,0.8061,-0.0662,4.0854,27.5000,-10.0610
1595877725,0.6542,0.8140,-0.0714,4.1463,29.8171,-8.1098
1595877725,0.6025,0.8731,-0.0957,10.8537,58.5366,-7.3171
1595877725,0.6083,0.9117,-0.2014,12.8659,65.9756,-7.7439
1595877725,0.5847,0.9717,-0.0790,18.8415,63.6585,7.3171
1595877725,0.5743,0.9728,-0.0812,20.8537,50.9146,10.1220
1595877725,0.6019,0.9648,-0.0585,23.6585,42.2561,12.6220
1595877725,0.5623,0.9250,-0.0787,25.9756,43.1098,15.0000
1595877725,0.6996,0.9634,-0.0903,35.7317,46.4024,21.2805
1595877725,0.6361,0.9154,-0.0324,37.1341,67.0732,31.5244
1595877725,0.6566,0.9003,0.0002,34.2683,66.0366,32.5610
1595877725,0.7496,0.8882,0.0071,39.8171,77.8049,36.7683
1595877725,0.7513,0.8842,0.0305,41.8293,81.2805,39.3293
1595877725,0.7318,0.8660,0.0247,43.1098,83.9634,41.3415
1595877725,0.7192,0.7596,-0.0185,45.0000,89.2073,43.7195
1595877725,0.6870,0.7307,-0.0502,47.0732,86.7073,43.9024
1595877725,0.7683,0.6867,-0.0297,56.1585,68.2317,40.7927
1595877725,0.7239,0.6828,-0.0784,56.8293,84.0854,36.7683
1595877725,0.7575,0.5861,-0.1304,63.0488,88.1707,30.1829
1595877725,0.7772,0.6089,-0.0814,72.3781,84.0244,26.7683
1595877725,0.8179,0.6081,-0.0928,75.4268,82.5610,25.9146
1595877725,0.8030,0.6098,-0.0166,83.0488,82.3781,25.9146
1595877725,0.7679,0.6037,0.0214,85.4268,84.4512,25.1829
1595877725,0.7543,0.5859,0.0295,86.8293,84.0244,24.1463
1595877725,0.7714,0.5960,0.0211,88.3537,82.8049,23.5976
1595877725,0.8024,0.5970,0.0199,93.6585,93.2317,23.2317
1595877725,0.8008,0.5812,0.0564,98.7195,99.1463,22.5000
1595877725,0.8381,0.5961,0.0712,101.3415,104.0854,20.9146
1595877725,0.8644,0.6198,0.0591,102.7439,111.2805,21.7073
1595877725,0.8665,0.6233,-0.0161,107.4390,121.0976,26.0976
1595877725,0.9387,0.6252,0.0442,109.6951,120.5488,27.3171
1595877725,0.9451,0.6031,0.0234,111.9512,122.1951,27.9878
1595877725,0.7014,0.5374,-0.1558,116.4024,116.7683,29.4512
1595877725,0.7848,0.5609,-0.1907,144.6951,68.5366,25.6707
1595877725,0.8615,0.6417,-0.1774,152.1342,55.6707,23.1707
1595877725,0.8406,0.7080,-0.1057,151.8293,77.0732,15.4268
1595877725,0.8356,0.6606,-0.0812,135.2439,81.8293,14.9390
1595877725,0.8401,0.6699,-0.2625,121.6463,121.2805,16.7073
1595877725,0.8199,0.6794,-0.2393,120.6098,133.9634,18.2927
1595877725,0.8024,0.6799,-0.1515,107.7439,142.3171,25.0610
1595877725,0.8138,0.6761,-0.1741,103.1707,141.8293,26.5854
1595877725,0.7888,0.6826,-0.2301,100.4268,139.4512,27.3780
1595877726,0.7794,0.7020,-0.2303,98.8415,133.2317,28.1707
1595877726,0.8022,0.7267,-0.2119,97.3781,123.0488,27.9268
1595877726,0.8232,0.7453,-0.1681,94.3902,111.2195,29.2073
1595877726,0.7884,0.7206,-0.1378,92.1341,104.0244,31.2805
1595877726,0.7657,0.7078,-0.1350,89.3902,96.4024,32.4390
1595877726,0.7916,0.7147,-0.1407,86.8293,89.7561,30.7927
1595877726,0.8358,0.7209,-0.1467,85.5488,80.4878,29.6951
1595877726,0.8787,0.7529,-0.1296,84.0854,70.1829,28.0488
1595877726,0.8621,0.7980,-0.0905,83.1707,62.5000,23.8415
1595877726,0.7920,0.8231,-0.0275,82.9268,58.2317,18.7195
1595877726,0.6871,0.6506,0.1711,80.3659,40.9146,21.1585
1595877726,0.7294,0.6085,0.1890,79.0854,42.9878,25.4268
1595877726,0.7606,0.5887,0.1556,77.2561,52.5000,27.9878
1595877726,0.8643,0.6580,0.1907,73.2317,80.7927,32.3780
1595877726,0.8975,0.7114,0.2205,68.5976,83.1098,31.5244
1595877726,0.8927,0.7042,0.2112,58.7195,71.7073,33.1098
1595877726,0.7498,0.6926,0.2424,61.7683,65.4878,31.7073
1595877726,0.7115,0.6583,0.2452,61.3415,61.6463,29.9390
1595877726,0.7065,0.6065,0.1730,60.7927,56.3415,26.1585
1595877726,0.7069,0.5745,0.1083,62.9268,52.1341,25.4268
1595877726,0.8276,0.6076,0.2319,69.7561,41.2195,20.6707
1595877726,0.8022,0.6342,0.3087,69.8781,43.6585,19.6341
1595877726,0.7769,0.6481,0.3906,67.6220,47.3781,19.1463
1595877726,0.8115,0.6246,0.4218,56.8293,44.0244,18.4146
1595877726,0.8866,0.5988,0.3370,49.9390,43.9024,19.1463
1595877726,0.8180,0.5649,0.2783,42.8659,58.9634,19.2683
1595877726,0.9470,0.5831,0.2468,39.7561,12.1951,15.8537
1595877726,0.9229,0.5466,0.2218,40.8537,2.3780,16.8902
1595877726,0.8327,0.5110,0.2413,42.3171,13.2317,16.1585
1595877726,0.7778,0.5361,0.2870,43.2317,26.6463,13.1707
1595877726,0.5709,0.5891,0.3065,40.9146,34.1463,10.7317
1595877726,0.5292,0.5526,0.2333,33.7195,41.7073,7.1951
1595877726,0.4963,0.5434,0.1221,31.7683,50.4878,1.2805
1595877726,0.5452,0.5612,0.1051,34.8780,47.3781,-3.5976
1595877726,0.6324,0.5795,0.1593,38.1707,35.5488,-7.1341
1595877726,0.7401,0.5972,0.1877,41.6463,21.0976,-16.2805
1595877726,0.7012,0.5880,0.1954,43.2927,26.5244,-20.7317
1595877726,0.7089,0.6138,0.2027,44.9390,26.1585,-25.1220
1595877726,0.7162,0.6463,0.2080,45.2439,15.1829,-26.0366
1595877726,0.8053,0.6389,0.1059,44.5122,-27.7439,-28.0488
1595877726,0.8451,0.6277,0.0709,46.5244,-50.4268,-27.4390
1595877726,0.8737,0.6079,0.0616,45.8537,-61.8902,-27.1951
1595877726,0.8425,0.5879,0.0721,43.5976,-58.1098,-27.1341
1595877726,0.7430,0.5827,0.1227,40.3049,-43.4146,-26.3415
1595877726,0.6463,0.5895,0.2004,35.1829,-24.6341,-25.5488
1595877726,0.5813,0.5872,0.2651,15.9756,16.0976,-29.5732
1595877726,0.5588,0.6019,0.2294,11.4634,20.9146,-32.9268
1595877726,0.7193,0.6202,0.1440,2.8049,-10.5488,-31.1585
1595877726,0.7811,0.6310,0.1310,1.0366,-20.4878,-28.5976
1595877726,0.8069,0.6221,0.0978,-2.0732,-26.6463,-29.3293
1595877726,0.8201,0.6147,0.1637,-12.1951,-20.9146,-24.7561
1595877726,0.6364,0.5562,0.1670,-24.3902,18.1707,-24.8171
1595877726,0.8046,0.6183,0.1027,-23.6585,-21.4024,-29.6341
1595877726,0.9005,0.5979,0.0089,-23.2317,-34.4512,-27.4390
1595877726,0.8372,0.6159,0.0374,-20.1829,-32.1951,-25.4268
1595877726,0.8516,0.6290,0.0715,-19.2073,-37.6829,-21.5244
1595877726,0.8873,0.6478,0.0803,-21.8293,-44.5732,-20.6707
1595877726,0.7399,0.6702,-0.0016,-23.5976,-33.7805,-17.6829
1595877726,0.9056,0.7635,-0.0515,-23.7195,-53.2317,-19.7561
1595877726,0.9853,0.8361,-0.0552,-23.2317,-70.6707,-20.4268
1595877726,1.0527,0.9078,-0.0562,-24.0854,-84.5732,-24.6341
1595877726,1.0469,0.9969,-0.0455,-27.5000,-104.9390,-30.7927
1595877726,1.0267,1.0148,-0.0245,-27.8659,-111.5854,-33.9634
1595877726,0.7780,0.8301,0.0554,-19.5122,-108.2927,-29.7561
1595877726,0.7060,0.8007,0.0963,-14.2073,-98.4756,-27.1951
1595877727,0.6871,0.8145,0.1360,-9.0854,-94.7561,-24.7561
1595877727,0.7326,0.8946,0.1655,-4.8780,-93.9634,-18.8415
1595877727,0.7889,0.9974,0.0763,-8.7195,-93.5366,-11.5854
1595877727,0.8121,0.9655,0.0413,-14.6951,-85.0610,1.5244
1595877727,0.7565,0.9419,0.0349,-15.3659,-74.0854,5.7317
1595877727,0.7037,0.9254,0.0372,-16.2195,-66.1585,9.0854
1595877727,0.6881,0.8921,0.0311,-18.0488,-60.9756,10.9756
1595877727,0.6921,0.8658,0.0240,-21.0366,-56.5244,12.2561
1595877727,0.6130,0.8102,-0.0195,-24.2683,-43.9634,18.7195
1595877727,0.5934,0.7793,-0.0430,-26.3415,-37.0122,18.7195
1595877727,0.5909,0.7651,-0.0634,-26.5244,-31.8293,19.0854
1595877727,0.5889,0.7401,-0.0776,-26.5244,-29.8780,21.1585
1595877727,0.6223,0.7019,-0.0671,-25.0000,-17.8659,24.6951
1595877727,0.6716,0.6960,-0.0581,-24.4512,-15.4878,25.6098
1595877727,0.7090,0.7034,-0.0626,-24.1463,-11.8902,26.2805
1595877727,0.7092,0.7076,-0.0712,-24.6951,-6.2805,26.2805
1595877727,0.7092,0.7095,-0.1090,-27.9268,-8.4756,25.5488
1595877727,0.7165,0.7003,-0.1163,-30.0000,-15.2439,25.4878
1595877727,0.7286,0.6939,-0.1335,-33.7195,-24.2683,23.5366
1595877727,0.7427,0.6979,-0.1295,-34.5732,-24.8780,22.8659
1595877727,0.7455,0.6929,-0.1205,-35.6098,-24.8780,22.5610
1595877727,0.7433,0.6807,-0.1085,-36.4634,-25.7927,21.9512
1595877727,0.7441,0.6680,-0.1075,-36.8293,-27.6220,21.1585
1595877727,0.7539,0.6599,-0.1035,-37.3780,-29.5122,20.9146
1595877727,0.7542,0.6331,-0.0927,-39.4512,-32.0732,19.3902
1595877727,0.7415,0.6229,-0.1023,-40.4268,-32.0732,18.1098
1595877727,0.7311,0.6180,-0.1167,-41.2195,-31.0366,16.5854
1595877727,0.7243,0.6161,-0.1212,-42.0732,-29.2683,14.6341
1595877727,0.7543,0.6051,-0.1296,-43.4146,-28.9024,9.6951
1595877727,0.7974,0.5989,-0.1439,-43.4146,-30.4268,7.7439
1595877727,0.8141,0.6346,-0.1124,-41.3415,-32.9878,2.4390
1595877727,0.8196,0.6188,-0.1262,-41.9512,-39.2683,2.3780
1595877727,0.8051,0.6044,-0.0997,-41.3415,-42.2561,3.1707
1595877727,0.7972,0.6037,-0.0803,-41.2195,-40.3659,3.1707
1595877727,0.7982,0.6046,-0.0600,-41.4634,-38.6585,3.4756
1595877727,0.7764,0.6419,-0.0490,-45.0610,-28.2317,3.8415
1595877727,0.7860,0.6643,-0.0538,-46.7073,-25.2439,2.3171
1595877727,0.8320,0.6987,-0.0605,-49.2073,-25.0610,-0.0610
1595877727,0.8456,0.7421,-0.0631,-55.6707,-17.1951,-9.6341
1595877727,0.8756,0.7210,-0.0269,-57.5610,-15.0000,-15.6098
1595877727,0.8716,0.7155,-0.0070,-57.6829,-13.5366,-17.6220
1595877727,0.8539,0.7321,0.0098,-56.0976,-12.0122,-18.7195
1595877727,0.8142,0.7570,0.0524,-52.1341,-13.5366,-20.7927
1595877727,0.7888,0.7548,0.0510,-50.8537,-15.5488,-21.5854
1595877727,0.7800,0.7589,0.0615,-48.9024,-17.0732,-22.5610
1595877727,0.7696,0.7516,0.0705,-47.1341,-17.6829,-24.2073
1595877727,0.7763,0.7170,0.0677,-42.8049,-20.0610,-26.0976
1595877727,0.7581,0.7188,0.0850,-39.4512,-21.3415,-25.0610
1595877727,0.6821,0.6994,0.1382,-31.2195,-20.4878,-21.7683
1595877727,0.5946,0.7191,0.1530,-20.7927,-11.2805,-19.6951
1595877727,0.6334,0.7286,0.1454,-19.1463,-13.9634,-20.8537
1595877727,0.6693,0.7336,0.1329,-19.4512,-16.9512,-22.5000
1595877727,0.7046,0.7527,0.0966,-19.5122,-12.1951,-26.0976
1595877727,0.7039,0.7510,0.1020,-18.8415,-6.5244,-26.8293
1595877727,0.6789,0.7429,0.1155,-18.4146,-1.3415,-27.0122
1595877727,0.6185,0.7353,0.1287,-17.0732,2.0122,-26.8902
1595877727,0.5537,0.7064,0.1604,-14.5122,-6.2195,-23.4756
1595877727,0.5421,0.7103,0.1393,-14.6341,-1.8293,-24.0854
1595877727,0.5732,0.7949,0.0511,-9.3293,1.2195,-29.3902
1595877727,0.5244,0.7975,0.0754,-7.9268,4.9390,-29.5732
1595877728,0.5024,0.7863,0.0946,-6.6463,5.1829,-31.1585
1595877728,0.5715,0.8333,0.0570,-4.7561,-5.9146,-31.6463
1595877728,0.5566,0.8461,0.0487,-4.5122,-2.9268,-31.4024
1595877728,0.5212,0.8692,0.0410,-3.2927,1.4634,-30.8537
1595877728,0.4985,0.9008,0.0432,-0.3659,4.0244,-30.6707
1595877728,0.5262,0.9166,0.0999,3.4756,-2.3171,-28.7805
1595877728,0.5225,0.9337,0.1216,3.9634,-2.7439,-28.5976
1595877728,0.5302,0.9375,0.1180,3.5366,-2.5000,-28.0488
1595877728,0.4899,0.9480,0.0906,1.8293,0.0000,-25.9146
1595877728,0.5155,0.9554,0.0786,1.2195,-2.7439,-25.7317
1595877728,0.5278,0.9493,0.0613,1.0976,-4.0854,-24.9390
1595877728,0.5518,0.9623,0.0547,2.2561,-3.1098,-24.5122
1595877728,0.5342,0.9649,0.0585,6.4634,4.8171,-20.7927
1595877728,0.5135,0.9643,0.0676,7.9878,6.4024,-19.5122
1595877728,0.5096,0.9605,0.0703,8.6585,5.6098,-18.1707
1595877728,0.5079,0.9696,0.0755,8.7805,4.0244,-17.5610
1595877728,0.5214,0.9716,0.0806,8.1707,3.5366,-16.9512
1595877728,0.5374,0.9641,0.0685,7.0122,3.1707,-16.9512
1595877728,0.5289,0.9513,0.0502,6.5854,2.4390,-17.6220
1595877728,0.5159,0.9395,0.0453,6.6463,2.0732,-17.7439
1595877728,0.5159,0.9268,0.0412,6.5854,1.5244,-17.9268
1595877728,0.5201,0.9200,0.0367,6.1585,0.7317,-17.6829
1595877728,0.5198,0.9130,0.0420,6.2195,0.6707,-17.0122
1595877728,0.5130,0.9011,0.0462,6.1585,1.5244,-16.4024
1595877728,0.5165,0.9041,0.0394,6.3415,2.0122,-16.4634
1595877728,0.5115,0.9095,0.0291,6.5854,1.4634,-15.8537
1595877728,0.5101,0.9161,0.0192,7.3171,-0.8537,-15.3049
1595877728,0.5152,0.9440,0.0335,7.8659,0.9756,-15.9756
1595877728,0.4957,0.9418,0.0395,7.5610,4.6951,-16.0366
1595877728,0.5222,0.9338,0.0256,4.0244,-0.4268,-16.6463
1595877728,0.5372,0.9376,0.0125,2.9268,-1.6463,-15.9146
1595877728,0.5567,0.9476,0.0123,2.3171,-1.4024,-15.0000
1595877728,0.5592,0.9609,0.0081,2.1951,0.7317,-13.8415
1595877728,0.5269,0.9579,-0.0099,2.4390,2.9878,-12.3171
1595877728,0.5177,0.9485,0.0117,3.4146,2.1951,-9.9390
1595877728,0.4934,0.9398,0.0165,2.8049,2.1951,-8.4756
1595877728,0.4812,0.9343,0.0174,3.0488,2.3780,-7.9878
1595877728,0.5011,0.9302,0.0218,3.5366,0.1829,-8.0488
1595877728,0.5153,0.9233,0.0217,3.3537,-2.7439,-7.9878
1595877728,0.4767,0.9197,0.0067,3.9634,-3.9634,-8.3537
1595877728,0.4960,0.9255,0.0099,4.4512,-5.4878,-8.8415
1595877728,0.5041,0.9448,0.0122,3.5976,-5.5488,-7.8049
1595877728,0.4988,0.9438,0.0121,3.3537,-4.5122,-7.5000
1595877728,0.5165,0.9387,0.0091,2.7439,-3.7195,-7.7439
1595877728,0.5295,0.9359,0.0076,1.8902,-2.7439,-7.6220
1595877728,0.5200,0.9314,0.0062,1.4024,-1.1585,-7.5610
1595877728,0.5066,0.9277,0.0079,1.3415,1.1585,-7.8659
1595877728,0.4839,0.9164,0.0032,1.6463,2.1951,-8.0488
1595877728,0.4847,0.9062,0.0020,1.6463,0.8537,-7.8049
1595877728,0.4876,0.9028,0.0013,1.7683,-1.1585,-7.5610
1595877728,0.5028,0.9042,0.0037,2.1341,-2.6220,-7.4390
1595877728,0.5098,0.9195,0.0085,2.1341,-2.4390,-7.3780
1595877728,0.4759,0.9274,-0.0002,2.1951,0.9146,-8.0488
1595877728,0.4885,0.9259,-0.0092,1.8902,2.3780,-8.1707
1595877728,0.4233,0.9335,-0.0266,1.3415,4.3902,-8.5366
1595877728,0.3058,0.9031,-0.0012,2.4390,7.0122,-9.4512
1595877728,0.4377,0.9343,-0.0256,3.2927,10.4878,-13.2927
1595877728,0.6339,0.9998,-0.0355,2.8659,4.8780,-10.1220
1595877728,0.5439,0.9443,-0.0435,1.2195,-0.1829,-3.9634
1595877728,0.3817,0.9258,-0.0197,2.0122,6.6463,-6.4634
1595877728,0.4249,0.9466,-0.0049,4.2683,12.5000,-8.5366
1595877728,0.4503,0.9494,-0.0034,3.1707,14.5122,-7.1951
1595877728,0.4677,0.9473,0.0076,3.2927,16.4024,-7.3171
1595877728,0.4827,0.9410,0.0109,1.6463,15.4268,-6.9512
1595877728,0.5021,0.9603,0.0322,1.0976,15.8537,-7.6829
1595877728,0.5236,0.9641,-0.0287,2.0122,17.0732,-7.1341
1595877728,0.5684,0.9915,-0.0629,3.4146,18.5976,-6.2805
1595877728,0.6555,0.9913,-0.0668,4.2683,21.7073,-5.7927
1595877728,0.6531,0.9905,-0.0385,5.0000,29.3293,-3.5976
1595877728,0.5035,0.9499,0.0249,11.4634,32.5000,1.6463
1595877728,0.4555,0.9314,0.0333,11.6463,34.3902,0.4268
1595877728,0.4205,0.9372,0.0145,10.7927,37.0732,-0.2439
1595877728,0.4170,0.9435,0.0056,10.3659,33.9024,1.7683
1595877728,0.4128,0.9459,0.0023,8.9024,27.2561,1.2195
1595877728,0.5250,0.9911,0.0379,6.7073,18.2317,-1.9512
1595877728,0.5144,0.9900,0.1165,4.3293,18.7195,-2.5610
1595877728,0.3745,0.9067,0.0647,1.0366,20.1829,-1.3415
1595877729,0.3083,0.9164,0.0099,0.3659,20.7927,-0.4268
1595877729,0.4584,0.9363,-0.0019,2.3171,5.0000,1.0976
1595877729,0.4651,0.9321,0.0259,0.4878,1.9512,1.7683
1595877729,0.3752,0.9387,0.0419,1.5854,4.2683,2.1951
1595877729,0.3699,0.9449,0.0397,2.1951,4.4512,1.8293
1595877729,0.4962,0.9661,0.0699,-2.7439,2.1951,1.5854
1595877729,0.5310,1.0441,0.0945,-4.5732,17.8049,0.4268
1595877729,0.4861,1.0721,0.1094,-6.1585,22.3780,0.0610
1595877729,0.3228,1.0518,0.0365,-13.0488,33.2927,4.1463
1595877729,0.3580,1.0370,0.0213,-11.7073,24.8780,5.3659
1595877729,0.4234,1.0383,0.0154,-12.8659,15.0610,5.9756
1595877729,0.4468,1.0637,0.0203,-12.6829,9.8780,6.5854
1595877729,0.3984,1.0911,0.0318,-12.8049,11.9512,8.2927
1595877729,0.3299,1.1226,0.0640,-13.2317,18.9634,9.3293
1595877729,0.2631,1.1290,0.0845,-14.2073,23.6585,10.8537
1595877729,0.2295,1.1166,0.0988,-16.4024,22.3780,12.6220
1595877729,0.2316,1.1210,0.1055,-18.6585,16.6463,13.4756
1595877729,0.2396,1.1384,0.0916,-21.6463,5.6707,14.9390
1595877729,0.2314,1.1349,0.0896,-23.3537,2.2561,15.0000
1595877729,0.2197,1.1295,0.0889,-25.3659,-1.4634,14.5732
1595877729,0.2042,1.1264,0.0896,-26.7683,-5.8537,13.7195
1595877729,0.1954,1.1194,0.1042,-27.9878,-11.3415,13.2927
1595877729,0.2296,1.1071,0.1199,-31.2805,-23.2317,11.0976
1595877729,0.2509,1.1050,0.1241,-32.7439,-26.7073,8.8415
1595877729,0.2562,1.1053,0.1207,-34.5732,-26.5854,6.0976
1595877729,0.2338,1.0883,0.1107,-37.2561,-23.4146,2.6829
1595877729,0.2124,1.0858,0.0925,-42.0732,-14.7561,-7.4390
1595877729,0.2106,1.0862,0.0912,-44.3293,-14.7561,-11.5854
1595877729,0.2073,1.0908,0.0892,-46.7073,-14.8780,-15.5488
1595877729,0.2199,1.0852,0.0922,-49.3293,-15.8537,-19.0244
1595877729,0.2228,1.0792,0.0975,-52.3171,-16.5854,-22.5610
1595877729,0.2077,1.0672,0.1016,-57.2561,-16.7073,-29.4512
1595877729,0.2045,1.0467,0.0956,-59.8781,-17.6829,-33.1098
1595877729,0.1956,1.0366,0.0778,-61.2805,-19.4512,-36.5854
1595877729,0.1859,1.0323,0.0632,-61.0976,-23.2317,-39.6341
1595877729,0.2216,0.9833,0.0378,-63.2927,-48.1707,-53.6585
1595877729,0.2596,0.9702,0.0769,-62.3171,-62.8049,-64.2683
1595877729,0.2419,0.9602,0.0750,-61.4024,-62.6829,-67.9268
1595877729,0.2400,0.9349,0.0602,-60.4268,-63.9024,-70.9146
1595877729,0.2609,0.9021,0.0469,-59.7561,-66.7073,-73.4756
1595877729,0.2784,0.8713,0.0429,-59.1463,-67.6220,-76.0976
1595877729,0.3154,0.8359,0.0723,-53.9024,-66.1585,-81.6463
1595877729,0.3352,0.8360,0.0703,-51.4024,-66.9512,-83.0488
1595877729,0.3429,0.8334,0.0728,-48.6585,-65.9146,-84.4512
1595877729,0.3516,0.8276,0.0814,-46.5244,-62.8659,-85.9146
1595877729,0.3623,0.8227,0.0894,-44.9390,-58.9024,-87.6220
1595877729,0.3656,0.8146,0.0999,-43.1707,-54.6951,-89.2683
1595877729,0.3439,0.8135,0.0945,-34.5732,-38.9634,-94.3293
1595877730,0.3445,0.8359,0.0994,-29.3293,-39.8171,-95.7927
1595877730,0.3291,0.8471,0.1191,-26.9512,-40.5488,-95.9756
1595877730,0.3124,0.8557,0.1326,-23.7805,-42.5000,-95.4878
1595877730,0.3337,0.8632,0.1517,-16.7073,-53.9024,-92.5610
1595877730,0.3332,0.8636,0.1595,-13.5366,-60.3049,-90.1220
1595877730,0.3811,0.9229,0.2169,9.4512,-83.4756,-72.6829
1595877730,0.3260,0.9070,0.2233,11.2805,-76.8902,-69.7561
1595877730,0.2677,0.9118,0.2333,13.5976,-70.0000,-66.2805
1595877730,0.2360,0.9250,0.2443,16.4024,-66.4634,-63.2927
1595877730,0.2238,0.9330,0.2935,19.4512,-65.9756,-57.9268
1595877730,0.2167,0.9299,0.3085,19.5732,-64.7561,-54.4512
1595877730,0.2264,0.9313,0.3071,19.6341,-63.5366,-50.4268
1595877730,0.2220,0.9375,0.3442,20.2439,-69.7561,-37.2561
1595877730,0.2153,0.9422,0.3676,19.7561,-69.8781,-35.0610
1595877730,0.2207,0.9436,0.3832,20.3659,-71.4024,-32.5000
1595877730,0.1900,0.9149,0.4137,21.2805,-71.1585,-27.8049
1595877730,0.1773,0.9042,0.4361,24.0854,-69.0854,-21.8293
1595877730,0.1793,0.9013,0.4492,24.5122,-70.1829,-19.3902
1595877730,0.1655,0.9029,0.4598,23.9024,-70.0000,-16.8902
1595877730,0.1743,1.0345,0.4480,-3.0488,-35.3659,-1.1585
1595877730,0.1820,1.1180,0.3552,-16.6463,-46.2195,-0.5488
1595877730,0.2853,1.2095,0.2732,-27.4390,-69.2683,2.5610
1595877730,0.4371,0.9349,0.2697,-27.0122,-40.3659,40.8537
1595877730,0.4279,0.9306,0.2755,-26.4634,-31.6463,46.5244
1595877730,0.3935,0.9006,0.2406,-25.8537,-9.3902,61.3415
1595877730,0.4136,0.8595,0.2209,-26.2195,-1.1585,68.6585
1595877730,0.4149,0.8203,0.1931,-26.7683,5.9146,74.2683
1595877730,0.4167,0.8123,0.1987,-25.9146,9.2073,75.6707
1595877730,0.3875,0.9033,0.2312,-30.0610,19.1463,73.7805
1595877730,0.3774,0.8765,0.2221,-34.4512,-16.2195,49.2073
1595877730,0.3766,0.8759,0.2330,-33.9634,-19.0244,47.2561
1595877731,0.3696,0.8731,0.2455,-31.4634,-22.6220,44.8780
1595877731,0.3674,0.8769,0.2498,-29.8780,-22.9878,43.7195
1595877731,0.3552,0.9125,0.2629,-25.1220,-20.4878,38.6585
1595877731,0.3091,0.9020,0.3444,-15.6707,-10.6707,28.2317
1595877731,0.2551,0.8557,0.4213,2.2561,-0.7927,-34.4512
1595877731,0.2458,0.8572,0.4341,3.7195,-2.6829,-56.3415
1595877731,0.2378,0.8939,0.4323,3.1098,-2.4390,-63.9024
1595877731,0.2335,1.0910,0.3957,4.5122,-7.9268,-101.8902
1595877731,0.2883,1.1086,0.3961,8.7805,-25.3659,-126.1585
1595877731,0.3374,1.0566,0.4182,14.0244,-37.8049,-138.3537
1595877731,0.2280,0.8998,0.3222,17.0122,17.7439,-43.1098
1595877731,0.1693,0.8382,0.2815,15.6098,12.3171,-26.5244
1595877731,0.1472,0.8179,0.2791,15.1220,6.1585,-20.0610
1595877731,0.1512,0.7947,0.2769,14.3902,-21.6463,-8.4756
1595877731,0.1636,0.7870,0.2727,13.5366,-31.4634,-6.6463
1595877731,0.1949,0.7756,0.2457,12.0122,-54.9390,-3.7195
1595877731,0.2553,0.8113,0.2520,9.0244,-65.0000,-3.4756
1595877731,0.2690,0.8154,0.2593,8.2927,-62.1341,-2.8049
1595877731,0.2661,0.8394,0.2720,7.6829,-45.8537,-0.9146
1595877731,0.2724,0.8557,0.2787,7.6220,-35.4878,0.0000
1595877731,0.2827,0.8738,0.2894,7.6829,-24.7561,1.0976
1595877731,0.2889,0.9180,0.3675,13.4146,29.3902,12.5610
1595877731,0.2142,0.8738,0.3591,14.2683,59.0854,20.9756
1595877731,0.1603,0.8434,0.3625,11.3415,83.7805,27.7439
1595877731,0.3503,0.8618,0.5438,-7.8049,105.0000,44.4512
1595877731,0.2945,0.8508,0.5486,-10.4878,107.6220,48.4146
1595877731,0.2585,0.8577,0.5520,-12.2561,105.9756,53.4146
1595877731,0.2672,0.8615,0.5463,-15.3049,97.6220,58.1707
1595877731,0.3645,0.8463,0.5021,-26.5244,67.8049,80.5488
1595877731,0.4247,0.8658,0.4988,-29.6951,51.4634,94.4512
1595877731,0.5851,0.9569,0.4823,-35.0000,23.2927,107.4390
1595877731,0.6577,0.9857,0.3358,-14.6341,62.0732,105.9146
1595877731,0.6018,0.9982,0.3892,-8.7805,80.9146,107.9268
1595877731,0.5466,1.0215,0.3894,-5.7927,92.5610,109.2073
1595877731,0.5012,1.0214,0.3517,-3.1707,102.5000,114.6951
1595877731,0.4742,0.9647,0.2966,-2.2561,103.3537,120.6098
1595877732,0.4292,0.8679,0.2378,0.3659,118.0488,117.8049
1595877732,0.3824,0.8143,0.2300,2.6220,129.8781,103.2317
1595877732,0.3969,0.8101,0.2297,4.1463,127.8049,98.5976
1595877732,0.2646,0.8145,0.2209,11.7683,139.3293,61.8293
1595877732,0.2558,0.8076,0.2004,13.3537,134.6951,54.9390
1595877732,0.3242,0.9048,0.3093,23.8415,114.8171,28.6585
1595877732,0.3080,0.9058,0.3092,23.5976,117.0122,24.8780
1595877732,0.2245,0.9515,0.2183,35.2439,115.5488,13.5976
1595877732,0.2260,0.9600,0.2578,37.2561,111.5854,10.3659
1595877732,0.1998,1.0370,0.3931,44.9390,101.7683,2.0732
1595877732,0.0852,1.0023,0.4326,41.8902,96.7073,-0.0610
1595877732,0.0657,0.9924,0.4404,39.5732,85.1220,1.5854
1595877732,0.0799,0.9987,0.4313,39.8171,76.9512,2.1341
1595877732,0.1071,1.0175,0.4241,40.0610,70.6707,2.3780
1595877732,0.1293,1.0570,0.5410,39.5122,74.9390,3.4146
1595877732,0.1124,1.0659,0.5591,32.9268,83.1098,5.6707
1595877732,0.0625,1.0273,0.5651,10.9146,26.8293,15.6098
1595877732,0.1149,0.9944,0.5681,8.2317,15.4268,18.5976
1595877732,0.0888,0.8843,0.5597,-0.1220,2.6220,14.7561
1595877732,0.0786,0.8781,0.5666,0.4878,6.9512,13.5976
1595877732,0.0881,0.8146,0.5790,5.3659,5.9146,9.1463
1595877732,0.0749,0.8216,0.5955,6.8293,4.0244,7.1341
1595877732,0.1414,0.8198,0.6258,5.3659,-5.0000,-6.4634
1595877732,0.1656,0.8112,0.6365,5.3049,-5.0610,-8.3537
1595877732,0.1677,0.7994,0.6474,4.5732,-8.1098,-8.9634
1595877732,0.0884,0.7980,0.6251,5.8537,-11.7073,-10.9146
1595877732,0.1403,0.7836,0.6002,3.6585,-15.2439,-14.8171
1595877732,0.1306,0.7603,0.5927,6.5854,4.0854,-18.2317
1595877732,0.1443,0.8000,0.5740,7.1341,9.5732,-14.6951
1595877732,0.1007,0.8222,0.6096,9.8780,14.0854,-15.4268
1595877732,0.0370,0.8240,0.6260,13.7805,15.0610,-11.7073
1595877732,0.1188,0.8420,0.6559,11.4024,43.1707,2.2561
1595877733,-0.0086,0.8218,0.4797,16.3415,78.2317,17.1341
1595877733,0.0145,0.8246,0.5198,17.2561,82.3781,17.3780
1595877733,0.0763,0.8199,0.6046,17.3171,88.1098,16.8293
1595877733,-0.1857,0.7582,0.4406,23.2317,84.0244,17.2561
1595877733,-0.2716,0.7251,0.4557,25.0000,72.6829,11.0976
1595877733,-0.0908,0.8541,0.5203,30.9756,55.7927,-6.7683
1595877733,-0.1202,0.9752,0.5446,33.2317,63.2317,-5.4268
1595877733,-0.0806,0.9846,0.3459,19.0244,27.6829,-3.5366
1595877733,-0.0963,0.9537,0.3480,18.0488,29.0244,-3.1098
1595877733,-0.1224,0.9325,0.2731,15.2439,28.5976,-8.0488
1595877733,-0.1004,0.9180,0.3375,18.1707,32.5610,-15.8537
1595877733,0.0290,0.9688,0.4485,17.5610,26.2195,-18.8415
1595877733,-0.1379,0.8945,0.3666,14.3293,24.5732,-17.2561
1595877733,-0.2549,0.9630,0.4735,23.5366,-23.2927,-33.4756
1595877733,-0.1953,0.9526,0.4518,22.9878,-45.7317,-30.7317
1595877733,-0.0862,0.9422,0.4603,10.7317,-104.8171,-33.3537
1595877733,-0.1730,0.8923,0.4716,-2.0122,-104.9390,-27.8659
1595877733,-0.2030,0.8917,0.4869,-4.3902,-108.4146,-28.4146
1595877733,-0.2300,0.9427,0.3632,-17.6220,-140.6707,-34.3293
1595877733,-0.1533,0.9842,0.4710,-21.4024,-158.4146,-35.8537
1595877733,-0.0291,0.9030,0.4878,-40.4268,-233.6585,-30.2439
1595877733,0.0704,0.8321,0.5096,-46.5244,-245.3049,-22.8049
1595877733,0.1130,0.7557,0.4882,-52.1951,-220.6707,-20.4878
1595877733,0.0639,0.8073,0.5300,-47.0122,-100.4878,-26.5244
1595877733,0.1137,0.8417,0.5406,-47.1951,-94.3902,-28.1098
1595877733,0.1785,0.8770,0.5689,-46.5244,-103.2317,-30.8537
1595877733,-0.0045,0.8610,0.5695,-42.9878,-131.5244,-38.5366
1595877733,0.0150,0.8607,0.6077,-46.8902,-142.2561,-38.6585
1595877733,0.0707,0.7886,0.5956,-53.8415,-124.6951,-28.9024
1595877733,0.0606,0.8114,0.5491,-49.6951,-115.4268,-29.1463
1595877733,0.2542,0.8177,0.4860,-36.0976,-126.8902,-21.2805
1595877733,0.0245,0.7381,0.6362,-28.4756,-41.4634,-23.4146
1595877733,0.1710,0.7751,0.7163,-28.9024,-72.8049,-33.1707
1595877733,0.4429,0.6277,0.4349,-10.8537,-92.9878,-22.6220
1595877733,0.4301,0.5825,0.4384,2.0122,-79.8781,-19.9390
1595877733,0.4701,0.5796,0.4908,12.9878,-60.3659,-17.6220
1595877733,0.3669,0.5681,0.5322,20.3049,67.9878,-12.5000
1595877733,0.4517,0.6990,0.7269,24.3293,170.3659,16.9512
1595877733,0.2109,0.7054,0.7816,16.1585,106.9512,13.1098
1595877733,0.1876,0.7247,0.8172,15.0000,102.6829,15.5488
1595877733,0.1194,0.7252,0.6902,0.3659,77.3781,16.2195
1595877733,0.1642,0.7366,0.6746,-0.9756,70.1829,16.1585
1595877733,0.1916,0.7495,0.6616,-4.4512,63.3537,15.6098
1595877733,-0.0765,0.7830,0.5599,0.1220,70.4878,9.3902
1595877733,-0.0853,0.8004,0.5701,4.1463,67.8049,7.1951
1595877733,-0.0905,0.8165,0.6008,5.3049,68.7195,5.6098
1595877734,-0.1167,0.8177,0.5851,5.6707,69.6951,5.1829
1595877734,-0.1112,0.8461,0.5112,9.9390,69.1463,1.3415
1595877734,-0.2551,0.8794,0.4870,14.2073,63.5366,-2.6220
1595877734,-0.3568,0.9081,0.3641,15.6707,55.9756,-8.1098
1595877734,-0.1252,0.9797,0.4896,13.1707,37.0122,-14.5122
1595877734,0.0556,0.9676,0.6544,2.5000,12.1951,-9.6341
1595877734,-0.0379,0.9341,0.6252,3.1098,21.3415,-9.5732
1595877734,-0.0079,0.9050,0.4440,6.0366,27.5610,2.5000
1595877734,-0.3015,0.9351,0.2617,12.5000,26.5854,1.8902
1595877734,-0.2151,0.9875,0.4510,17.9878,31.3415,-9.8780
1595877734,-0.0040,0.8310,0.6320,8.4146,-14.2683,-12.8049
1595877734,0.0611,0.8616,0.6543,7.4390,-23.2317,-8.9024
1595877734,-0.0674,0.8794,0.6512,7.4390,-23.9634,3.5366
1595877734,-0.1262,0.9118,0.6133,3.6585,-42.9268,3.8415
1595877734,-0.1454,0.9285,0.5659,3.5976,-60.9146,6.5854
1595877734,-0.0703,0.9464,0.6039,-3.2317,-86.3415,9.2073
1595877734,-0.1937,0.9534,0.5616,-20.5488,-122.5610,12.8049
1595877734,-0.0881,0.9703,0.6409,-24.0854,-144.0854,12.5610
1595877734,0.0355,0.8608,0.4942,-44.2073,-273.0488,14.4512
1595877734,0.1652,0.8491,0.4607,-46.8902,-300.6707,16.8293
1595877734,0.4468,0.7231,0.3412,-35.2439,-423.2317,23.5976
1595877734,0.4778,0.6803,0.2368,-18.5976,-436.5244,31.5854
1595877734,0.6504,0.6451,0.0884,12.1951,-470.0610,42.8049
1595877734,0.7321,0.6683,0.0825,19.5122,-475.0000,46.0366
1595877735,0.7733,0.6789,0.1293,24.1463,-473.5366,47.3781
1595877735,0.6404,0.6403,0.1230,26.9512,-443.1098,46.0976
1595877735,0.6375,0.5763,-0.0695,12.7439,-424.9390,28.1098
1595877735,0.7786,0.5355,-0.1906,6.2195,-399.1464,19.6951
1595877735,0.8796,0.6014,-0.2953,15.6098,-199.7561,-0.4878
1595877735,0.9149,0.6144,-0.3357,17.5610,-180.3659,-1.6463
1595877735,0.8639,0.6362,-0.3475,21.1585,-144.8171,-0.7927
1595877735,0.8301,0.6686,-0.4466,26.2805,-83.5366,-8.4146
1595877735,0.8510,0.6584,-0.4326,27.7439,-74.8171,-8.1098
1595877735,0.7675,0.6729,-0.3916,30.4268,-30.5488,-8.3537
1595877735,0.7377,0.6846,-0.3986,29.4512,-22.6829,-7.5610
1595877735,0.6393,0.6955,-0.4031,20.7927,-11.4024,-5.9146
1595877735,0.6579,0.7075,-0.3748,12.6220,-19.5122,-7.5610
1595877735,0.6606,0.7083,-0.3803,12.1341,-19.8171,-7.5610
1595877735,0.6724,0.7101,-0.4100,11.1585,-18.7805,-8.1098
1595877736,0.6670,0.7153,-0.4362,10.6098,-17.6220,-7.1341
1595877736,0.5823,0.7332,-0.4691,7.5610,-1.6463,-9.6951
1595877736,0.5788,0.7356,-0.4569,4.4512,1.2195,-7.5000
1595877736,0.5961,0.7528,-0.4681,2.2561,3.7805,-7.0732
1595877736,0.5725,0.7253,-0.4932,2.6829,-1.3415,-1.3415
1595877736,0.5906,0.7068,-0.4890,1.0366,-5.1220,-0.9146
1595877736,0.5898,0.7114,-0.4876,0.6098,-3.2927,-1.1585
1595877736,0.5864,0.7093,-0.5458,-3.4756,3.4146,1.2805
1595877736,0.5876,0.7084,-0.5278,-2.9268,6.4024,0.6098
1595877736,0.5834,0.7097,-0.5281,-1.0976,4.5732,1.2195
1595877736,0.5980,0.7057,-0.5343,0.1829,3.2927,1.2805
1595877736,0.6014,0.7172,-0.4783,2.3171,-2.5000,1.2195
1595877736,0.6307,0.6811,-0.4514,-1.3415,-3.9024,2.9878
1595877736,0.6709,0.6893,-0.4903,-5.0000,2.5610,3.1707
1595877736,0.6324,0.7030,-0.4677,-5.6098,8.4756,2.8659
1595877736,0.6434,0.6992,-0.4702,-5.3659,5.0000,3.4756
1595877736,0.6271,0.6891,-0.4902,-2.1341,3.7805,2.9268
1595877736,0.6196,0.6965,-0.5535,0.4878,11.4024,2.1341
1595877736,0.6389,0.7242,-0.5085,5.6098,17.0732,0.1220
1595877736,0.6532,0.7281,-0.4628,8.4756,19.3902,2.0122
1595877736,0.6291,0.7307,-0.4310,10.1829,17.0122,7.1341
1595877736,0.6385,0.7064,-0.4452,5.5488,0.7317,6.4634
1595877736,0.6729,0.7178,-0.4517,5.3049,0.3049,6.0366
1595877736,0.7051,0.7257,-0.4677,4.6951,3.2927,7.3171
1595877736,0.6656,0.6938,-0.4445,4.1463,7.7439,9.2683
1595877736,0.6868,0.6420,-0.4037,1.4634,-5.3659,-4.2073
1595877736,0.6999,0.6442,-0.4196,0.9146,-3.9634,-4.6341
1595877736,0.7296,0.6848,-0.4506,1.6463,-7.6220,-1.6463
1595877736,0.7388,0.6854,-0.4494,0.9756,-11.2195,-0.3049
1595877736,0.7662,0.6869,-0.4401,0.9146,-16.0366,2.9878
1595877736,0.7404,0.7263,-0.3960,6.7683,4.3293,8.4756
1595877736,0.7286,0.7357,-0.3130,4.6951,19.2073,8.7805
1595877737,0.6625,0.7200,-0.3118,-3.4146,191.8902,2.2561
1595877737,0.8105,0.6028,-0.2104,-31.4634,225.9756,-5.0610
1595877737,0.8959,0.6736,-0.1715,-13.4756,277.6219,-15.6098
1595877737,0.9807,0.6492,-0.1511,-15.5488,290.0000,-17.9268
1595877737,0.6600,0.4139,0.1817,-15.1829,388.7805,-32.5000
1595877737,0.9157,0.5118,0.2272,-0.7317,415.6707,-30.0000
1595877737,1.0140,0.5876,0.2039,8.0488,431.4634,-20.9146
1595877737,0.5359,0.5015,0.2588,39.9390,446.6464,-9.5122
1595877737,0.4592,0.5247,0.3419,48.7805,408.0488,-9.5122
1595877737,0.4151,0.5963,0.3845,56.2805,371.7683,-2.7439
1595877737,0.3942,0.5981,0.4553,60.6707,329.4512,0.3659
1595877737,0.5288,0.6748,0.4305,62.2561,243.4756,4.8171
1595877737,0.4904,0.6573,0.4950,61.6463,216.7683,8.5366
1595877737,0.4448,0.6508,0.6111,57.1341,164.6342,7.9878
1595877737,0.3874,0.7862,0.6297,58.1707,129.0244,4.2073
1595877737,0.3394,0.8005,0.4753,55.1220,109.5732,7.8659
1595877737,0.1069,0.8669,0.7865,54.4512,121.2805,-0.3049
1595877737,0.1660,1.4023,0.9210,29.9390,86.0976,3.9024
1595877737,0.0591,1.0512,0.6620,-6.8902,-73.7805,29.8171
1595877737,0.0427,1.0719,0.4174,-8.1098,-105.0000,41.0976
1595877737,0.4922,1.0595,0.3583,-23.5976,-166.9512,63.4756
1595877737,0.5859,1.0784,0.3865,-24.5122,-170.7317,74.1463
1595877737,0.4529,0.7595,0.2700,-4.1463,-61.0976,89.6341
1595877737,0.5244,0.6866,0.3699,9.3293,-38.1098,86.9512
1595877737,0.5197,0.6988,0.4155,13.9024,-22.9878,84.6951
1595877737,0.5672,0.6588,0.3761,23.7195,19.8171,89.2683
1595877737,0.6158,0.5731,0.3084,25.6707,40.0610,94.8781
1595877737,0.5540,0.5418,0.4005,40.1220,42.8049,94.9390
1595877737,0.5945,0.5461,0.4109,46.7683,33.9024,94.5122
1595877737,0.7287,0.5469,0.3575,63.8415,43.2927,93.0488
1595877737,0.7657,0.5607,0.3567,67.0732,64.3293,91.5854
1595877737,0.7313,0.5588,0.4040,70.5488,83.1707,89.3902
1595877737,0.7101,0.5400,0.4003,72.6220,90.1829,86.9512
1595877737,0.7507,0.5406,0.3778,77.7439,80.4878,83.4146
1595877737,0.7620,0.5637,0.4233,79.1463,88.1707,70.5488
1595877737,0.7654,0.5742,0.4243,79.3902,91.5854,67.0122
1595877737,0.7673,0.5882,0.4012,79.0854,94.2683,59.4512
1595877737,0.7712,0.5911,0.3781,79.8171,91.3415,55.9146
1595877737,0.7681,0.5941,0.3666,79.8171,85.6098,54.2683
1595877737,0.7767,0.5809,0.3864,79.0854,70.7317,51.2805
1595877737,0.7976,0.5801,0.3930,78.3537,65.2439,50.4878
1595877737,0.8056,0.5838,0.4070,78.7195,63.0488,50.3659
1595877737,0.7534,0.5803,0.4309,78.9634,70.6707,50.4878
1595877737,0.7504,0.5679,0.4042,78.6585,68.3537,51.2195
1595877737,0.7567,0.5621,0.3853,77.8659,65.4878,53.3537
1595877737,0.7566,0.5545,0.3830,77.7439,65.4878,55.2439
1595877737,0.7461,0.5460,0.3936,77.6220,67.6220,57.0122
1595877738,0.7474,0.5389,0.4171,77.4390,69.5732,58.6585
1595877738,0.7256,0.5341,0.4092,76.7073,73.7805,62.9268
1595877738,0.7207,0.5482,0.4228,72.6220,85.4268,60.6707
1595877738,0.7280,0.5725,0.4277,72.5000,88.6585,60.3049
1595877738,0.7347,0.5783,0.4331,70.6098,90.8537,58.7195
1595877738,0.7265,0.5820,0.4328,67.6220,92.6220,57.1951
1595877738,0.7156,0.5903,0.4453,65.1220,94.6341,56.4634
1595877738,0.7068,0.5801,0.4872,58.8415,94.1463,53.1707
1595877738,0.6872,0.5913,0.4925,57.3781,89.9390,52.1341
1595877738,0.7868,0.6090,0.4721,50.7927,66.9512,47.3781
1595877738,0.7643,0.5988,0.4603,49.3902,61.2195,42.6220
1595877738,0.7341,0.5678,0.4512,46.0976,60.8537,43.0488
1595877738,0.7339,0.5608,0.4633,45.5488,58.8415,42.4390
1595877738,0.7177,0.5341,0.4735,43.1098,55.8537,42.6829
1595877738,0.7063,0.5268,0.4655,44.6951,52.9878,41.5854
1595877738,0.7059,0.5013,0.3819,48.7195,47.8659,43.5976
1595877738,0.6898,0.4919,0.3888,54.6951,46.2195,42.3171
1595877738,0.6905,0.4943,0.4067,56.4634,47.2561,41.8293
1595877738,0.6940,0.4894,0.4235,58.0488,49.0854,40.4268
1595877738,0.6896,0.4883,0.4288,59.4512,51.2195,38.9634
1595877738,0.6821,0.5053,0.4345,61.5854,53.1707,37.9878
1595877738,0.6971,0.5387,0.4229,64.5732,55.9756,32.1951
1595877738,0.6404,0.6070,0.4326,64.5122,59.5732,25.5488
1595877738,0.6109,0.6696,0.4645,57.9878,62.1341,19.3902
1595877738,0.5865,0.6760,0.4858,56.7073,63.2317,16.7683
1595877738,0.5703,0.7250,0.5404,49.9390,64.4512,8.5366
1595877738,0.5568,0.7604,0.5436,48.2317,68.3537,4.8780
1595877738,0.4297,0.8855,0.6514,25.9146,71.8902,-19.3902
1595877738,0.3023,0.8723,0.6996,11.7683,48.4756,-25.3659
1595877738,0.2983,0.8791,0.7061,8.5366,38.5976,-25.9756
1595877738,0.2937,0.8907,0.7244,6.4024,29.9390,-26.9512
1595877738,0.2986,0.9062,0.7305,5.0000,22.9268,-28.1098
1595877738,0.3220,0.9138,0.7396,2.9268,17.5610,-29.3902
1595877738,0.3324,0.9218,0.7427,-0.1220,14.6951,-29.8171
1595877738,0.3150,0.8953,0.7274,-6.5854,12.3780,-28.4146
1595877738,0.2964,0.8363,0.6907,-14.8171,3.5976,-21.8293
1595877738,0.2485,0.7422,0.6650,-21.8293,-15.6098,-14.3902
1595877738,0.2494,0.6704,0.6163,-27.3171,-31.8293,-10.1220
1595877738,0.2472,0.6586,0.6031,-28.5976,-33.1098,-9.6341
1595877738,0.2676,0.6482,0.5916,-29.2683,-32.0122,-10.5488
1595877738,0.2651,0.6302,0.5718,-30.5488,-30.1220,-15.3049
1595877738,0.2725,0.6211,0.5681,-30.7317,-30.4878,-16.6463
1595877738,0.2855,0.6202,0.5626,-28.5366,-26.7683,-20.9756
1595877738,0.2986,0.6272,0.5764,-26.9512,-24.5732,-21.8293
1595877738,0.3198,0.6138,0.6021,-26.0976,-24.2073,-21.6463
1595877738,0.3503,0.6097,0.6296,-25.5488,-27.8049,-21.1585
1595877738,0.3707,0.6004,0.6457,-24.9390,-34.9390,-20.5488
1595877738,0.3814,0.6002,0.6514,-24.0244,-42.8659,-19.5732
1595877738,0.4075,0.5941,0.6442,-23.0488,-49.6341,-18.3537
1595877738,0.4361,0.5785,0.6378,-22.6829,-53.9024,-17.0122
1595877738,0.4501,0.5680,0.6340,-22.1341,-54.7561,-15.2439
1595877738,0.4552,0.5559,0.6325,-21.0976,-52.5610,-13.7195
1595877738,0.4637,0.5128,0.6300,-20.0000,-44.9390,-9.6951
1595877739,0.4820,0.5022,0.6154,-20.6098,-43.7195,-8.2927
1595877739,0.4894,0.4807,0.5848,-22.6829,-35.8537,-5.7927
1595877739,0.4789,0.4775,0.5684,-20.9756,-19.0244,-6.0976
1595877739,0.4924,0.4782,0.5834,-20.1220,-19.9390,-6.6463
1595877739,0.4988,0.4838,0.5948,-19.4512,-21.2195,-8.0488
1595877739,0.5399,0.5016,0.5903,-16.3415,-24.2683,-9.8780
1595877739,0.5524,0.5085,0.5944,-14.2073,-26.5244,-10.6707
1595877739,0.5411,0.5066,0.6010,-13.4146,-27.6829,-10.9756
1595877739,0.5637,0.5153,0.6064,-11.7073,-29.9390,-11.7683
1595877739,0.5748,0.5262,0.6205,-10.8537,-31.3415,-11.0976
1595877739,0.5729,0.5349,0.6365,-10.1220,-31.9512,-10.6098
1595877739,0.5676,0.5439,0.6511,-9.5732,-32.3171,-11.0976
1595877739,0.5734,0.5617,0.6526,-8.6585,-32.8049,-11.0366
1595877739,0.5811,0.5634,0.6512,-7.9878,-33.5976,-10.4878
1595877739,0.6071,0.5959,0.6498,-5.3659,-36.5854,-10.6707
1595877739,0.6370,0.6559,0.6913,-4.0854,-35.3659,-14.5732
1595877739,0.6594,0.7427,0.7324,-1.1585,-25.6707,-22.0122
1595877739,0.6376,0.9054,0.7891,-4.2683,-20.0000,-23.1707
1595877739,0.6341,0.8835,0.7863,-5.4268,-30.2439,-18.1707
1595877739,0.5978,0.7858,0.7339,-9.5122,-48.0488,5.1829
1595877739,0.5496,0.7691,0.6971,-11.9512,-40.4268,12.1951
1595877739,0.5412,0.7643,0.6768,-13.1707,-34.6951,13.7805
1595877739,0.4978,0.8114,0.6243,-16.4634,-15.1220,14.1463
1595877739,0.4744,0.8239,0.6022,-17.6220,-9.8780,13.1098
1595877739,0.4634,0.8294,0.5829,-18.3537,-7.4390,11.8902
1595877739,0.4528,0.8248,0.5648,-19.5122,-8.1707,10.0610
1595877739,0.4531,0.8162,0.5405,-20.6098,-10.8537,8.5366
1595877739,0.4620,0.8132,0.4866,-22.5610,-15.5488,5.7317
1595877739,0.4373,0.7920,0.4766,-23.3537,-16.0366,4.0244
1595877739,0.4039,0.7388,0.4141,-25.3049,-22.9268,0.5488
1595877739,0.3966,0.6871,0.3958,-26.7073,-29.2073,-2.0732
1595877739,0.3948,0.6737,0.3887,-26.7683,-30.7927,-3.9634
1595877739,0.4012,0.6638,0.3819,-27.0122,-32.0122,-5.8537
1595877739,0.4103,0.6817,0.3617,-27.7439,-33.7805,-11.1585
1595877739,0.4153,0.6866,0.3463,-27.8659,-34.0244,-15.1220
1595877739,0.4213,0.6880,0.3338,-27.0732,-34.5122,-18.9024
1595877739,0.4442,0.6667,0.3244,-26.0366,-36.8902,-28.1098
1595877739,0.4689,0.6714,0.3264,-25.4878,-37.4390,-32.7439
1595877739,0.5086,0.6782,0.3527,-25.2439,-33.2317,-44.6341
1595877739,0.5357,0.7084,0.3674,-25.4268,-31.7683,-54.8171
1595877739,0.5598,0.7093,0.3761,-25.0000,-33.6585,-58.2927
1595877739,0.5952,0.7152,0.3936,-25.4878,-35.4878,-61.4024
1595877739,0.6204,0.7240,0.4139,-26.4024,-35.7317,-63.5366
1595877739,0.6315,0.7398,0.4278,-27.1341,-34.4512,-65.0610
1595877739,0.6461,0.7598,0.4371,-27.8049,-32.5000,-66.5854
1595877739,0.6570,0.7828,0.4276,-29.8171,-29.9390,-70.0000
1595877739,0.6833,0.7684,0.4474,-35.1829,-31.4024,-78.5976
1595877739,0.7094,0.7374,0.4584,-35.6707,-35.4878,-80.6098
1595877739,0.7242,0.7279,0.4510,-34.6341,-40.9146,-79.2683
1595877739,0.7424,0.7187,0.4460,-33.7195,-47.4390,-78.5976
1595877739,0.7465,0.7029,0.4463,-33.5976,-52.5610,-78.7805
1595877739,0.7458,0.6893,0.4438,-32.7439,-55.2439,-78.3537
1595877739,0.7459,0.6772,0.4532,-31.4634,-55.5488,-77.1951
1595877739,0.7477,0.6625,0.4666,-31.0366,-53.6585,-77.0122
1595877739,0.7403,0.6448,0.4895,-29.2683,-47.5610,-75.7317
1595877739,0.7288,0.6446,0.5060,-27.7439,-45.7927,-74.6341
1595877739,0.7315,0.6489,0.5153,-26.5244,-46.2195,-72.9878
1595877739,0.7438,0.6422,0.5213,-26.3415,-48.0488,-70.7317
1595877739,0.7735,0.6558,0.5297,-25.7317,-50.9756,-68.1707
1595877739,0.8906,0.7614,0.6052,-25.3659,-53.2927,-64.3902
1595877739,0.8813,0.7878,0.6321,-25.0000,-48.2927,-64.6951
1595877739,0.8610,0.7957,0.6548,-25.0000,-41.7683,-65.3049
1595877739,0.8302,0.7856,0.6703,-25.9146,-35.3049,-65.0610
1595877739,0.7137,0.6907,0.6830,-24.2073,-36.3415,-55.8537
1595877739,0.6968,0.6513,0.6849,-21.9512,-40.7317,-50.7927
1595877739,0.6792,0.6070,0.6877,-20.0000,-43.2927,-45.5488
1595877740,0.6260,0.5771,0.6960,-13.7195,-41.1585,-31.6463
1595877740,0.6008,0.5717,0.6976,-9.6341,-38.4756,-24.8171
1595877740,0.5735,0.5654,0.6941,-5.7317,-35.9756,-17.6220
1595877740,0.5502,0.5594,0.6816,-1.4634,-33.5366,-10.7317
1595877740,0.5410,0.5590,0.6788,2.6220,-30.4268,-5.1220
1595877740,0.5409,0.5652,0.6778,5.8537,-26.5244,0.3659
1595877740,0.5314,0.5729,0.6754,7.9268,-20.4878,5.1829
1595877740,0.5049,0.5857,0.6705,9.3902,-12.1341,8.9024
1595877740,0.4871,0.6012,0.6550,10.4878,-2.8049,11.7683
1595877740,0.4333,0.6118,0.6161,11.2805,11.0366,16.5244
1595877740,0.3738,0.6547,0.5773,11.1585,11.8902,17.9268
1595877740,0.3540,0.6653,0.5639,11.9512,6.8293,18.0488
1595877740,0.3779,0.6951,0.5370,11.2805,-6.2195,17.9878
1595877740,0.3861,0.6981,0.5252,11.3415,-10.9756,19.6951
1595877740,0.3854,0.6892,0.5149,11.7683,-13.9634,21.1585
1595877740,0.3835,0.6780,0.5083,12.6829,-15.7927,22.3171
1595877740,0.3602,0.7579,0.4672,18.8415,-6.4024,22.4390
1595877740,0.3590,0.7010,0.4475,21.9512,-18.1707,18.3537
1595877740,0.3810,0.7037,0.4603,21.5854,-22.3780,17.3171
1595877740,0.4053,0.7230,0.4606,19.9390,-25.3049,16.1585
1595877740,0.4024,0.7307,0.4523,19.9390,-25.3659,15.3049
1595877740,0.3979,0.7164,0.4423,20.6098,-24.1463,14.2073
1595877740,0.3951,0.6985,0.4244,20.3049,-24.5732,13.4756
1595877740,0.3898,0.6839,0.4123,20.5488,-26.8902,12.8049
1595877740,0.3976,0.6647,0.4041,21.2805,-30.7927,11.6463
1595877740,0.4778,0.6028,0.3684,23.5366,-45.7927,9.4512
1595877740,0.5110,0.5800,0.3722,24.2073,-47.8049,8.4146
1595877740,0.5442,0.5682,0.3702,24.8171,-46.3415,7.4390
1595877740,0.5637,0.5611,0.3708,26.8293,-42.6829,7.4390
1595877740,0.6349,0.5422,0.3094,37.7439,-27.8049,8.4756
1595877740,0.6419,0.5502,0.2951,42.1341,-27.4390,10.0000
1595877740,0.6417,0.5536,0.2894,46.0976,-28.5976,11.3415
1595877740,0.6533,0.5621,0.2930,49.0244,-29.3902,12.0732
1595877740,0.6825,0.6041,0.2767,58.1098,-22.1951,15.9756
1595877740,0.6013,0.6180,0.2415,72.2561,-31.7073,13.7195
1595877740,0.6313,0.6223,0.2225,75.3049,-37.0732,12.9878
1595877740,0.6750,0.6238,0.2021,77.2561,-39.3293,12.7439
1595877740,0.7083,0.6384,0.1886,80.0610,-37.4390,12.0122
1595877740,0.7160,0.6703,0.1757,83.7195,-33.4756,11.4634
1595877740,0.7241,0.7046,0.1799,86.5854,-29.3293,10.0000
1595877740,0.7282,0.7581,0.1934,85.2439,-16.8293,5.3659
1595877740,0.7081,0.7806,0.1688,84.2073,-8.3537,4.4512
1595877740,0.6680,0.7910,0.1325,84.6341,-2.1951,3.7805
1595877740,0.6042,0.8040,0.0800,85.2439,-11.4634,2.2561
1595877740,0.6146,0.8173,0.0561,84.0854,-24.5122,1.0366
1595877740,0.7950,0.8511,0.0475,76.4024,-42.6829,-3.4146
1595877740,0.6893,0.8945,0.0739,69.2683,-2.4390,-5.9146
1595877740,0.6362,0.8979,0.0233,67.3781,5.0000,-5.9146
1595877740,0.6193,0.9058,-0.0392,65.4878,4.2073,-6.5854
1595877740,0.6312,0.9356,-0.0624,64.5732,-4.0854,-6.0976
1595877740,0.7340,0.9399,-0.0170,53.3537,-34.0854,-5.3659
1595877740,0.5991,0.9006,-0.1302,46.2195,-24.0854,3.2317
1595877740,0.6259,0.9060,-0.1464,46.2805,-32.6829,6.3415
1595877740,0.6626,0.9075,-0.1444,45.3049,-45.1829,10.0610
1595877740,0.6996,0.8948,-0.1180,44.0854,-56.9512,11.6463
1595877740,0.6919,0.8704,-0.0984,41.7073,-57.4390,12.0122
1595877741,0.6754,0.8474,-0.1338,41.7683,-47.1951,11.2195
1595877741,0.6474,0.8303,-0.1763,42.3780,-36.2805,10.5488
1595877741,0.6256,0.8176,-0.2054,43.7805,-28.9024,10.3049
1595877741,0.6580,0.8008,-0.2402,47.8049,-34.3293,11.5854
1595877741,0.6858,0.8143,-0.2556,48.4756,-32.7439,11.3415
1595877741,0.6739,0.8135,-0.2603,45.7927,-3.5976,3.2927
1595877741,0.6797,0.8177,-0.2495,45.0000,6.6463,0.7317
1595877741,0.6664,0.8334,-0.2234,43.6585,15.7317,-1.3415
1595877741,0.5828,0.9067,-0.1174,42.9268,22.5000,-2.3171
1595877741,0.6348,0.8495,-0.1858,7.9268,33.4146,-4.1463
1595877741,0.5502,0.8199,-0.3287,4.3902,68.3537,-3.9634
1595877741,0.6364,0.8428,-0.3400,9.5122,60.9756,-0.2439
1595877741,0.7783,0.8392,-0.3522,14.2683,45.4268,5.4268
1595877741,0.8080,0.7213,-0.1771,19.7561,80.4878,3.5976
1595877741,0.7373,0.7178,-0.2112,19.0244,103.9024,6.2195
1595877741,0.5374,0.7176,-0.0931,12.7439,121.5854,4.5122
1595877741,0.5180,0.7266,0.0132,7.3780,112.0122,4.5732
1595877741,0.5468,0.7303,0.0283,2.3780,91.6463,0.5488
1595877741,0.7165,0.7847,-0.1343,-12.5000,43.7195,8.3537
1595877741,0.6048,0.7673,-0.1334,-18.9634,40.1220,10.4268
1595877741,0.5226,0.7207,-0.1385,-25.3049,32.7439,9.0244
1595877741,0.4304,0.6242,-0.0742,-33.0488,8.1098,0.3659
1595877741,0.4571,0.6145,-0.1204,-32.5610,-17.9268,-1.0976
1595877741,0.7473,0.6235,-0.2803,-28.1098,-88.8415,-1.0976
1595877741,0.7598,0.6068,-0.2790,-28.9634,-88.9024,-6.0366
1595877741,0.8389,0.5980,-0.2008,-26.1585,-79.9390,-12.9878
1595877741,0.7145,0.5250,-0.2164,-21.8902,-55.3659,-24.9390
1595877741,0.6846,0.6833,-0.3412,2.5610,-62.4390,-38.3537
1595877741,0.6395,0.6942,-0.3313,2.9268,-50.6098,-38.2927
1595877741,0.4777,0.7570,-0.2600,-0.4878,-24.3902,-48.1098
1595877741,0.5617,0.7964,-0.2709,-3.7805,-21.1585,-54.0244
1595877741,0.6002,0.8511,-0.2510,-5.0610,-22.8659,-57.8049
1595877741,0.6561,0.9477,-0.2000,-4.4512,-33.1098,-55.3049
1595877741,0.6380,0.9623,-0.2023,-4.3902,-32.9268,-54.1463
1595877741,0.5703,0.9738,-0.1985,-7.1951,-30.3049,-51.7073
1595877741,0.4818,0.9914,-0.1884,-10.4268,-24.7561,-50.5488
1595877741,0.5655,1.0490,-0.1694,-14.0854,-28.1707,-47.0122
1595877741,0.6858,1.0908,-0.2188,-16.8293,-38.9634,-43.4756
1595877741,0.5948,1.1015,-0.1739,-15.6098,-38.8415,-31.8293
1595877741,0.5795,1.0980,-0.1469,-16.5854,-22.5000,-26.8902
1595877741,0.5640,1.0717,-0.1516,-15.9756,-7.8659,-25.5488
1595877741,0.5701,1.0781,-0.1844,-13.1098,2.9268,-23.4146
1595877741,0.5798,1.0682,-0.2430,-1.8902,0.5488,-0.2439
1595877741,0.5474,0.9670,-0.1943,1.7683,28.1707,5.0610
1595877741,0.5774,0.9713,-0.2239,3.0488,38.4756,5.4878
1595877741,0.5460,0.9890,-0.1970,5.3659,44.0854,6.8902
1595877741,0.4105,0.9435,-0.1348,1.0976,35.3659,11.5244
1595877741,0.4219,0.9287,-0.1344,-0.5488,26.6463,12.1951
1595877741,0.4765,0.9251,-0.1610,-0.9146,22.5000,10.3049
1595877741,0.5153,0.9188,-0.1625,0.0610,19.2073,9.0854
1595877741,0.4061,0.9115,-0.1390,-0.0610,18.2927,7.5610
1595877741,0.4795,0.9107,-0.1108,-0.6707,20.1220,6.9512
1595877741,0.4118,0.9204,-0.1508,-0.9756,37.4390,9.9390
1595877741,0.4121,0.9449,-0.1035,-2.0122,25.3049,12.2561
1595877741,0.4729,0.9724,-0.1014,-2.1341,15.6707,13.4146
1595877742,0.5280,0.9995,-0.1120,-1.6463,8.2927,14.0244
1595877742,0.4860,1.0729,-0.1384,-1.7073,27.0122,15.3049
1595877742,0.4866,1.0809,-0.1484,-0.9756,32.3780,17.4390
1595877742,0.4681,1.0639,-0.1503,5.2439,51.8902,23.3537
1595877742,0.4730,1.0601,-0.1505,8.3537,56.4634,25.9756
1595877742,0.4377,1.0388,-0.1281,12.4390,57.7439,30.3049
1595877742,0.3851,1.0298,-0.1053,7.8049,48.4756,32.1341
1595877742,0.3471,1.0363,-0.0844,5.3049,41.8902,31.9512
1595877742,0.3858,1.0270,-0.0718,2.7439,31.7683,31.4634
1595877742,0.5002,1.0330,-0.0689,1.1585,22.4390,29.9390
1595877742,0.5364,1.0162,-0.0519,-0.1220,18.8415,26.5244
1595877742,0.4817,0.9728,-0.0448,-3.7805,22.2561,22.1341
1595877742,0.4796,0.9112,-0.0637,-10.0610,29.0244,12.0122
1595877742,0.4772,0.8811,-0.1539,-9.5122,23.7195,7.0122
1595877742,0.4929,0.8774,-0.1465,-9.6341,18.7195,5.0000
1595877742,0.5120,0.8925,-0.1232,-11.0366,17.1951,1.0366
1595877742,0.5161,0.9114,-0.0898,-11.9512,20.9756,-4.3293
1595877742,0.5099,0.9224,-0.0486,-13.7805,28.1098,-9.6341
1595877742,0.5007,0.9185,-0.0157,-16.5854,36.2805,-13.9024
1595877742,0.4882,0.9047,0.0025,-20.6098,43.4146,-17.9268
1595877742,0.4972,0.8849,0.0081,-25.0000,48.5976,-21.9512
1595877742,0.5426,0.8645,0.0075,-28.9024,50.6098,-26.0976
1595877742,0.5446,0.8635,-0.0568,-37.9878,34.3902,-40.3659
1595877742,0.5051,0.8475,-0.0499,-43.4146,7.9268,-49.5732
1595877742,0.4786,0.8407,0.0046,-54.2073,-8.8415,-59.0854
1595877742,0.4810,0.8629,0.0284,-57.2561,-14.1463,-60.7927
1595877742,0.4789,0.8848,0.0439,-61.2195,-18.5366,-61.8293
1595877742,0.4902,0.8957,0.0495,-65.8537,-21.7683,-62.4390
1595877742,0.5138,0.8995,0.0443,-70.6707,-24.3293,-63.4756
1595877742,0.5483,0.9460,-0.0330,-77.8659,-28.9634,-65.6098
1595877742,0.6201,0.8929,-0.0212,-86.5244,-28.9634,-75.6098
1595877742,0.5571,0.8760,0.0602,-88.5976,-15.1829,-83.4146
1595877742,0.5167,0.8788,0.1099,-88.2317,-9.1463,-86.3415
1595877742,0.4939,0.8738,0.1528,-87.8659,-6.4634,-88.8415
1595877742,0.5119,0.8358,0.2158,-88.2927,-9.8780,-90.2439
1595877742,0.4922,0.7939,0.2628,-67.6220,-42.3780,-73.2927
1595877742,0.6992,0.7391,0.3122,-73.1707,-70.0610,-57.9268
1595877742,0.5508,0.7219,0.3447,-50.3049,-46.8293,-43.5976
1595877742,0.5356,0.7352,0.3506,-44.3293,-43.7805,-40.4878
1595877742,0.5362,0.7209,0.3549,-40.3659,-42.8049,-35.0000
1595877742,0.5361,0.7170,0.3522,-41.0976,-43.5976,-27.8659
1595877742,0.5116,0.7155,0.3569,-36.7073,-40.9756,-25.3049
1595877742,0.4743,0.7175,0.3671,-31.7073,-36.2195,-22.0732
1595877742,0.4133,0.7279,0.4792,-28.8415,-21.5244,-13.7805
1595877742,0.3740,0.7632,0.4626,-29.3293,11.1585,-0.2439
1595877742,0.3593,0.7702,0.4484,-29.2683,15.6707,1.7073
1595877742,0.3391,0.7764,0.4479,-28.5976,19.1463,3.3537
1595877742,0.3143,0.7875,0.4570,-28.2927,22.5000,4.0854
1595877742,0.2520,0.8040,0.4908,-28.7195,29.0244,4.6341
1595877743,0.1957,0.8169,0.4711,-18.0488,12.1951,12.8049
1595877743,0.1995,0.8657,0.4738,-14.3902,0.4878,13.9634
1595877743,0.2299,0.9305,0.4970,-11.8293,-4.8171,12.6220
1595877743,0.2266,0.9361,0.4965,-10.6707,-2.8049,12.1951
1595877743,0.2170,0.9296,0.4973,-8.6585,-1.0976,11.9512
1595877743,0.2089,0.9108,0.4951,-7.3171,-0.2439,12.1951
1595877743,0.1982,0.8907,0.4937,-6.0976,-0.5488,12.5610
1595877743,0.1935,0.8767,0.4945,-5.4268,-1.8293,13.0488
1595877743,0.2358,0.8633,0.5147,-4.5122,-4.8171,12.2561
1595877743,0.2361,0.8595,0.5148,-3.2927,-3.9024,12.0122
1595877743,0.2610,0.8525,0.5156,1.0976,-2.6829,11.2805
1595877743,0.2924,0.8591,0.4995,0.9756,-0.3659,11.5854
1595877743,0.3016,0.8655,0.4880,1.5244,2.8659,11.2805
1595877743,0.3809,0.8807,0.4529,-0.1829,11.9512,9.8171
1595877743,0.3810,0.8815,0.4500,0.0000,13.9634,10.5488
1595877743,0.4006,0.8650,0.4484,0.9146,15.1220,12.0122
1595877743,0.4017,0.8515,0.4356,0.3659,12.6220,14.9390
1595877743,0.4150,0.8602,0.4266,-0.1220,10.7317,16.1585
1595877743,0.4310,0.8615,0.4240,-0.6098,9.7561,16.6463
1595877743,0.4591,0.8456,0.4174,-1.3415,7.4390,17.8659
1595877743,0.4704,0.8432,0.4158,-1.3415,6.0366,18.4756
1595877743,0.4902,0.8343,0.3983,-2.9268,1.2805,18.9024
1595877743,0.5228,0.7994,0.3796,-3.5976,-4.5122,18.7805
1595877743,0.5408,0.7982,0.3824,-3.2317,-5.1829,18.7805
1595877743,0.5568,0.7906,0.3802,-3.1707,-5.6707,18.9634
1595877743,0.5625,0.7786,0.3838,-1.9512,-5.1829,20.7317
1595877743,0.5695,0.7770,0.3827,-1.2805,-5.1220,21.4024
1595877743,0.5739,0.7749,0.3870,-1.2805,-5.4878,22.4390
1595877743,0.6013,0.8002,0.3716,-1.3415,-5.4878,27.0732
1595877743,0.6059,0.8079,0.3671,-1.5854,-4.5122,27.9878
1595877743,0.6041,0.8093,0.3623,-1.6463,-3.6585,29.1463
1595877743,0.6003,0.8071,0.3613,-1.4024,-3.1098,30.2439
1595877743,0.6074,0.7933,0.3602,-1.0976,-3.5366,33.1707
1595877743,0.6080,0.7977,0.3605,-1.2805,-2.9268,34.0244
1595877743,0.6007,0.8076,0.3622,-0.8537,-2.0732,34.6341
1595877743,0.5889,0.8153,0.3632,0.1220,-1.3415,35.0610
1595877743,0.5850,0.8344,0.3638,1.0976,-1.2195,35.4878
1595877743,0.5892,0.8609,0.3671,1.8293,-2.4390,35.3049
1595877743,0.5616,0.8881,0.3752,5.0610,-2.4390,32.8049
1595877743,0.5453,0.8746,0.3834,6.3415,-3.0488,33.5366
1595877743,0.5318,0.8785,0.3896,8.2927,-1.0366,33.7195
1595877743,0.5237,0.8806,0.3888,9.1463,0.2439,33.3537
1595877743,0.5082,0.8790,0.3878,10.1220,1.4634,32.7439
1595877743,0.4972,0.8752,0.3868,11.0366,2.3780,31.8293
1595877743,0.4886,0.8739,0.3827,11.6463,2.6220,30.5488
1595877743,0.4958,0.8444,0.3932,11.8902,0.0000,25.1829
1595877743,0.4916,0.8433,0.3951,11.8902,-1.0366,22.9268
1595877743,0.4844,0.8545,0.4035,12.3171,-2.1341,20.1220
1595877743,0.4827,0.8508,0.3914,11.8902,-9.3902,10.9756
1595877743,0.4907,0.8329,0.3884,11.6463,-12.8049,8.0488
1595877743,0.4997,0.8086,0.3772,10.9756,-17.3780,3.1098
1595877743,0.5052,0.7637,0.3718,10.0610,-20.1829,-2.4390
1595877743,0.5132,0.7192,0.3663,11.2195,-21.8902,-6.6463
1595877743,0.5198,0.7101,0.3675,13.4756,-24.4512,-8.9634
1595877743,0.5309,0.7009,0.3617,14.5122,-28.1707,-11.4634
1595877743,0.5569,0.7118,0.3583,15.0610,-31.2805,-13.5366
1595877743,0.5668,0.7149,0.3572,15.4268,-32.1341,-14.2683
1595877743,0.5804,0.7108,0.3560,15.5488,-32.6829,-14.6951
1595877744,0.6315,0.7156,0.3559,13.4756,-21.5244,-10.2439
1595877744,0.6371,0.7688,0.3681,12.0122,-7.1951,-3.7195
1595877744,0.6286,0.7675,0.3639,11.0976,-5.3049,-1.4634
1595877744,0.6070,0.7628,0.3557,10.1220,-4.1463,0.9756
1595877744,0.5774,0.7538,0.3439,9.3293,-3.7805,3.7195
1595877744,0.5572,0.7407,0.3338,8.7805,-4.6951,6.1585
1595877744,0.5485,0.7302,0.3280,8.1707,-7.4390,8.4756
1595877744,0.5414,0.7184,0.3213,8.0488,-12.0122,10.7317
1595877744,0.5452,0.7050,0.3215,8.0488,-17.6220,12.7439
1595877744,0.5722,0.6873,0.3298,11.7683,-33.5366,16.4024
1595877744,0.5913,0.6887,0.3315,13.5976,-37.8659,16.8293
1595877744,0.6161,0.6942,0.3338,15.3659,-41.4634,17.5000
1595877744,0.6411,0.6967,0.3275,16.6463,-43.9024,18.4756
1595877744,0.6697,0.6898,0.3079,18.9634,-43.9024,20.6707
1595877744,0.6941,0.6768,0.2852,20.6098,-39.3902,23.5366
1595877744,0.7080,0.6832,0.2825,21.3415,-36.2805,25.1829
1595877744,0.7134,0.7018,0.2808,21.5854,-32.0122,26.8902
1595877744,0.7084,0.7280,0.2722,21.5854,-21.7073,29.9390
1595877744,0.6981,0.7244,0.2679,21.7073,-18.0488,31.4024
1595877744,0.6946,0.7155,0.2603,21.6463,-16.0976,32.8049
1595877744,0.6979,0.7081,0.2521,21.3415,-15.6098,34.0854
1595877744,0.7133,0.7003,0.2431,21.5244,-16.2195,36.2195
1595877744,0.7198,0.7106,0.2435,21.4024,-16.0366,36.7683
1595877744,0.7281,0.7587,0.2426,20.6098,-12.6829,37.6220
1595877744,0.7017,0.7396,0.2162,19.5122,-10.1220,39.6341
1595877744,0.6949,0.7269,0.2058,19.3902,-11.4634,40.3049
1595877744,0.6924,0.7185,0.1966,19.6951,-13.5976,40.9146
1595877744,0.7135,0.7891,0.2139,19.4512,-13.7805,40.0610
1595877744,0.6935,0.8157,0.2017,19.5732,-11.5244,39.2683
1595877744,0.6762,0.8099,0.1904,19.3902,-11.0366,38.4146
1595877744,0.6616,0.7936,0.1736,18.1707,-12.6220,37.4390
1595877744,0.6393,0.7778,0.1554,17.5000,-15.7317,36.5854
1595877744,0.6293,0.7689,0.1370,17.9268,-20.7927,35.4268
1595877744,0.6329,0.7570,0.1218,18.4146,-27.5000,33.7195
1595877744,0.6426,0.7384,0.1154,19.2683,-34.1463,31.8902
1595877744,0.7292,0.7736,0.1570,21.4634,-36.9512,22.9268
1595877744,0.7227,0.7766,0.1481,19.8780,-33.3537,21.5854
1595877744,0.7372,0.7644,0.1362,17.2561,-30.3659,19.8171
1595877744,0.7328,0.7338,0.0915,13.2927,-26.5244,15.4268
1595877744,0.7305,0.7778,0.1005,13.4146,-27.1951,14.3293
1595877744,0.7542,0.8176,0.1195,10.6707,-28.5976,11.9512
1595877744,0.8004,0.8330,0.1463,6.6463,-29.8780,9.0854
1595877744,0.7762,0.8407,0.1798,-3.1707,-18.8415,7.8659
1595877744,0.7352,0.7208,0.2647,-23.6585,-16.7073,15.3049
1595877744,0.7384,0.7015,0.2559,-26.3415,-16.2195,13.8415
1595877744,0.7691,0.7061,0.2285,-26.2805,-20.0610,14.6951
1595877744,0.7839,0.6531,0.1431,-31.5854,-30.3049,18.1098
1595877744,0.7632,0.6266,0.0907,-32.9878,-33.9024,15.7317
1595877744,0.7762,0.5847,0.0193,-34.2683,-44.5122,9.2683
1595877744,0.8104,0.5724,0.0359,-33.4756,-50.8537,2.2561
1595877745,0.8548,0.5762,0.0484,-33.6585,-54.8781,0.6098
1595877745,0.8212,0.5501,0.0941,-39.3902,-36.8293,-6.7073
1595877745,0.7159,0.5265,0.0692,-36.5244,-17.1341,-12.1341
1595877745,0.7278,0.5117,0.0461,-33.7805,-10.1829,-22.8659
1595877745,0.7338,0.5191,0.0258,-33.3537,-15.5488,-21.8293
1595877745,0.9579,0.5951,-0.1927,-14.0244,-55.1829,-28.5976
1595877745,0.8146,0.6912,0.1060,-10.4878,107.4390,-56.0366
1595877745,0.6956,0.6711,0.1627,-13.3537,132.7439,-58.0488
1595877745,0.9589,0.7943,-0.2772,32.9268,1.0366,-38.2317
1595877745,1.0403,0.8080,-0.2059,33.4756,-9.6341,-34.0854
1595877745,0.7085,0.7794,0.3146,10.7317,59.0244,-32.0732
1595877745,0.7438,0.8569,0.1131,10.7927,40.4268,-25.3659
1595877745,0.7469,0.7910,0.1155,5.9146,14.2683,-23.2927
1595877745,0.7325,0.7672,0.1558,6.4634,-2.4390,-16.0976
1595877745,0.8850,0.7820,0.2250,6.5854,-17.1951,-12.8049
1595877745,0.9103,0.7952,0.1529,6.8902,-26.2195,-1.5854
1595877745,0.8007,0.7572,0.0261,9.0244,-13.4756,1.9512
1595877745,0.5500,0.7374,0.1181,10.1220,-16.7073,0.4878
1595877745,0.5822,0.6985,0.1566,5.7317,-18.3537,-5.9146
1595877745,0.5453,0.6959,0.1584,6.9512,-13.8415,-11.1585
1595877745,0.5790,0.7189,0.1609,7.3171,-16.9512,-16.0976
1595877745,0.5438,0.7108,-0.0339,16.8293,-57.1951,-24.6341
1595877745,0.4972,0.7108,-0.0660,21.5244,-72.6220,-26.0366
1595877745,0.5349,0.7581,-0.0528,27.3780,-89.0244,-29.0244
1595877745,0.7091,0.8373,0.0099,32.8659,-102.0122,-29.2073
1595877745,0.7797,0.8425,0.0165,27.9268,-68.4756,-18.0488
1595877745,0.7609,0.8550,-0.0667,27.0122,-47.6220,-12.8659
1595877745,0.9858,0.8434,-0.2083,21.3415,-41.2195,1.5854
1595877745,0.9039,0.7883,0.0206,18.9024,-18.4756,3.4146
1595877745,0.7200,0.7372,0.0446,16.2805,12.3171,-1.2805
1595877745,0.7278,0.8414,0.0505,10.9146,15.4268,3.8415
1595877745,0.6837,0.7639,0.1357,7.3171,15.3659,1.7683
1595877745,0.5718,0.6688,-0.0198,1.7683,27.1341,-6.2195
1595877745,0.6119,0.7891,-0.0144,2.6829,2.5000,-11.0976
1595877745,0.5906,0.8401,-0.0403,6.8902,18.2317,-13.2927
1595877745,0.6444,0.8414,-0.0099,4.2073,12.3780,-12.8659
1595877745,0.5975,0.8224,-0.0193,0.7317,13.9634,-13.8415
1595877745,0.5874,0.8237,-0.0084,2.4390,18.9024,-14.1463
1595877745,0.6810,0.8725,-0.0269,1.6463,17.0732,-12.9268
1595877745,0.7742,0.8843,0.0067,0.1220,21.0976,-10.6707
1595877745,0.6361,0.8527,0.0037,-1.6463,46.6463,-8.5976
1595877745,0.5846,0.7838,-0.0124,0.0000,44.5732,-11.2805
1595877745,0.5273,0.7509,-0.0417,1.1585,43.2317,-13.4146
1595877745,0.5342,0.7914,-0.0336,5.6707,34.8780,-15.3049
1595877745,0.7545,0.8622,-0.0539,12.0732,-4.0854,-14.6951
1595877745,0.6860,0.8229,-0.0431,8.4756,13.9024,-13.1707
1595877745,0.6550,0.8248,-0.0305,5.2439,31.5854,-10.9756
1595877745,0.6293,0.8311,-0.0400,8.2927,33.5976,-9.4512
1595877745,0.6320,0.8122,-0.0084,7.8049,29.5122,-9.5732
1595877745,0.6301,0.8626,0.0460,9.9390,4.8780,-7.6220
1595877745,0.6428,0.8693,0.0649,8.8415,-1.6463,-6.5854
1595877745,0.6223,0.8514,0.0618,6.4634,-4.3293,-6.2805
1595877746,0.6091,0.8496,0.0607,4.8780,-4.9390,-6.6463
1595877746,0.6243,0.8429,0.0582,4.7561,-10.3049,-7.0732
1595877746,0.6221,0.8268,0.0604,3.7805,-11.3415,-7.9268
1595877746,0.6337,0.8544,0.0960,4.7561,-7.9268,-8.9634
1595877746,0.5784,0.8373,0.0403,4.8171,-8.4756,-7.7439
1595877746,0.5631,0.8328,0.0106,6.4024,-9.9390,-7.0122
1595877746,0.5613,0.8371,-0.0120,7.8659,-12.8049,-6.5244
1595877746,0.5765,0.8506,-0.0143,9.8780,-14.8171,-6.4634
1595877746,0.5905,0.8644,0.0158,6.0366,-3.9634,-6.6463
1595877746,0.6402,0.8792,0.0387,4.2683,-1.1585,-6.6463
1595877746,0.6587,0.8638,0.0258,2.0122,-0.2439,-5.9146
1595877746,0.6867,0.8128,-0.0226,-1.2195,15.3049,-5.5488
1595877746,0.4525,0.8264,0.0402,-1.9512,33.7195,-10.6098
1595877746,0.5054,0.8477,0.0585,-1.7073,18.1707,-11.0976
1595877746,0.5599,0.8485,0.0063,-2.7439,-0.9146,-16.4024
1595877746,0.7177,0.9171,0.1519,-7.4390,-19.2683,-7.8049
1595877746,0.5906,0.8479,0.1033,-10.4268,-14.6951,-6.2195
1595877746,0.5540,0.8932,0.1049,-8.1707,-9.2073,-2.9878
1595877746,0.5119,0.8923,0.0929,-7.9268,-9.2683,-2.6220
1595877746,0.4543,0.8718,0.0884,-7.8049,-5.3049,-3.2927
1595877746,0.4229,0.8419,0.0847,-9.1463,-2.1951,-4.6951
1595877746,0.5337,0.8739,0.0575,-6.5854,-8.8415,-8.4146
1595877746,0.5720,0.8900,0.0643,-4.5732,-19.5122,-7.3780
1595877746,0.5726,0.8849,0.0443,-4.8780,-23.3537,-7.0122
1595877746,0.6442,0.8783,0.0079,-7.2561,-38.1707,-7.8659
1595877747,0.5955,0.8562,-0.0074,-8.1707,-22.6220,-6.9512
1595877747,0.5414,0.8821,-0.0338,-5.1829,-16.4024,-4.6341
1595877747,0.5947,0.8805,-0.0139,-7.0732,-5.4268,-3.7195
1595877747,0.5648,0.9184,-0.0029,-3.9634,5.0000,-0.1220
1595877747,0.6508,0.8566,0.0112,-12.7439,-35.5488,11.3415
1595877747,0.6536,0.8538,0.0170,-13.4756,-42.2561,12.3780
1595877747,0.6414,0.8932,0.0837,-15.9756,-42.6829,7.8659
1595877747,0.5739,0.8114,0.0480,-14.5122,-11.7683,5.9756
1595877747,0.6130,0.8040,0.0522,-12.1341,-14.0854,5.6707
1595877747,0.6283,0.7833,-0.0510,-4.6341,25.1829,2.3171
1595877747,0.6378,0.7896,-0.0377,-4.5122,24.7561,2.6220
1595877747,0.6592,0.7869,-0.0287,-5.0000,22.8049,0.7927
1595877747,0.6451,0.8073,-0.0169,-3.7195,26.0976,-0.4878
1595877747,0.6174,0.8315,-0.0605,0.4268,14.5732,0.4268
1595877747,0.5527,0.8474,-0.0691,3.6585,11.5244,0.2439
1595877747,0.5322,0.8790,-0.0231,6.0976,-13.5976,1.1585
1595877747,0.4692,0.8837,-0.0179,8.3537,-14.3902,1.1585
1595877747,0.5110,0.9194,0.0208,9.6951,-11.4024,0.9146
1595877747,0.6044,0.9488,0.0347,8.5976,-7.2561,2.1341
1595877747,0.4623,0.9373,0.0399,7.0732,8.5976,6.1585
1595877747,0.6801,0.8694,-0.0122,-5.2439,13.2317,4.2073
1595877747,0.5875,0.8741,-0.0463,-2.6829,13.9024,4.8171
1595877747,0.6077,0.8274,0.0153,2.3780,6.7073,-2.3171
1595877747,0.6976,0.8160,0.0302,1.3415,-12.7439,0.6707
1595877747,0.6223,0.8373,0.1006,1.6463,-2.3171,-1.5854
1595877747,0.6974,0.8721,0.0856,0.4268,-5.9146,6.2195
1595877747,0.7546,0.8885,0.0909,-0.7317,-12.5610,8.8415
1595877747,0.5835,0.8425,0.0233,-0.2439,10.6707,5.1220
1595877747,0.5665,0.8479,0.0256,0.7317,12.2561,6.3415
1595877747,0.6849,0.8656,0.0449,-5.3659,48.1707,4.5732
1595877747,0.5918,0.8127,0.0369,-0.3659,85.2439,5.6707
1595877747,0.5645,0.8720,0.1517,-2.6829,123.7805,7.9268
1595877748,0.4222,0.8550,0.2473,-1.2195,90.6707,3.5976
1595877748,0.4240,0.8678,0.2463,0.2439,73.6585,5.6098
1595877748,0.4944,0.8445,0.2258,-2.3171,45.3049,4.2073
1595877748,0.5229,0.8294,0.2172,-3.7195,44.2683,0.9756
1595877748,0.5105,0.8330,0.2804,-1.7073,47.5610,0.7317
1595877748,0.5148,0.8911,0.3347,-9.5122,2.1341,3.2317
1595877748,0.5530,0.9109,0.3298,-11.5854,2.7439,3.3537
1595877748,0.5215,0.7657,0.3309,-15.4878,37.5000,-0.2439
1595877748,0.5790,0.7985,0.3245,-11.2805,76.5244,2.1951
1595877748,0.5710,0.7690,0.3452,-3.2927,25.4268,-0.7317
1595877748,0.5857,0.7850,0.3716,-3.5976,42.6220,0.0000
1595877748,0.4818,0.8272,0.4269,-3.3537,49.7561,0.1220
1595877748,0.4851,0.8427,0.3895,-4.3293,55.3659,-1.7683
1595877748,0.5015,0.7918,0.3332,-9.7561,64.3902,-0.0610
1595877748,0.4327,0.7883,0.3212,-7.3171,62.3171,-0.0610
1595877748,0.3886,0.8122,0.3514,-0.5488,53.8415,-3.0488
1595877748,0.4180,0.8098,0.3900,1.9512,38.8415,-5.9146
1595877748,0.4306,0.8201,0.3995,0.9146,23.2927,-7.1341
1595877748,0.4445,0.8116,0.4326,-0.1829,13.9024,-5.1220
1595877748,0.4700,0.7650,0.4551,-5.3049,16.5854,0.9756
1595877748,0.4519,0.8264,0.3676,2.4390,24.5122,-1.0976
1595877748,0.4675,0.8260,0.3661,4.0244,-0.0610,-4.0854
1595877748,0.4724,0.8389,0.3649,7.4390,-21.1585,-5.6707
1595877748,0.4691,0.8569,0.3690,10.4268,-30.9756,-7.0122
1595877748,0.5311,0.8656,0.4017,8.4756,-50.9146,-10.6707
1595877748,0.5064,0.8617,0.4094,6.8902,-52.8049,-12.1341
1595877748,0.4662,0.8658,0.4265,7.1341,-51.2805,-14.2683
1595877748,0.4979,0.8557,0.4272,5.3659,-48.8415,-9.9390
1595877748,0.5272,0.8336,0.3996,3.0488,-46.0976,-5.0000
1595877748,0.5053,0.8260,0.3820,4.0854,-44.4512,-4.5122
1595877748,0.4913,0.8232,0.3651,6.1585,-43.3537,-4.0854
1595877748,0.4885,0.8322,0.3394,7.6829,-44.8780,-2.9878
1595877748,0.5109,0.8160,0.3818,6.7073,-47.7439,-2.6829
1595877748,0.5499,0.8381,0.3694,4.3293,-38.1098,-2.0732
1595877748,0.5514,0.8364,0.3558,3.5366,-32.3171,0.7927
1595877748,0.5436,0.8284,0.3542,2.5000,-27.3171,2.2561
1595877748,0.5264,0.7795,0.3484,1.4634,-27.0122,-1.7073
1595877748,0.4310,0.7689,0.2894,-0.0610,-1.8902,-6.7073
1595877748,0.4970,0.8162,0.2645,2.9878,14.3293,-9.1463
1595877748,0.5162,0.8478,0.3173,4.6341,20.3659,-8.3537
1595877748,0.3179,0.9267,0.3369,15.4878,13.5976,-11.8293
1595877748,0.2778,0.9522,0.3097,16.3415,-3.7805,-8.5976
1595877748,0.4494,1.0065,0.2693,16.5854,-31.7073,-5.4268
1595877748,0.5128,0.8635,0.2532,7.0122,-61.2805,5.7927
1595877748,0.5674,0.8471,0.2294,6.1585,-48.2317,6.3415
1595877748,0.6807,0.8618,0.2596,5.1220,-36.2195,5.4268
1595877748,0.6951,0.8184,0.2805,2.5000,-23.9024,4.7561
1595877748,0.5886,0.7717,0.2758,3.1098,-5.9146,3.1707
1595877748,0.4852,0.7919,0.2621,11.4634,7.0732,0.8537
1595877748,0.4603,0.8281,0.2639,16.4024,3.7195,2.3171
1595877748,0.5038,0.8376,0.2714,13.3537,-15.2439,7.0122
1595877748,0.5182,0.8226,0.2728,7.0122,-35.4878,9.8171
1595877749,0.4483,0.7978,0.2455,2.7439,-44.3293,9.2683
1595877749,0.5114,0.8990,0.2317,-7.9268,43.6585,6.5854
1595877749,0.4571,0.8651,0.2450,-5.5488,45.8537,2.9878
1595877749,0.4225,0.8361,0.2549,-3.4756,42.5610,0.0000
1595877749,0.4172,0.8404,0.2661,-0.7317,35.6098,-0.3659
1595877749,0.4002,0.8492,0.2909,2.2561,26.1585,0.7927
1595877749,0.4889,0.8630,0.2956,5.6098,13.1707,0.6098
1595877749,0.4941,0.8594,0.3017,2.3780,-1.8293,0.3049
1595877749,0.5349,0.8378,0.2734,1.0366,-21.5854,-3.4146
1595877749,0.5522,0.8474,0.2735,0.6707,-17.0732,-3.0488
1595877749,0.5530,0.8447,0.2728,-0.3049,-16.9512,-3.3537
1595877749,0.5390,0.8510,0.2709,0.4878,-14.4512,-3.7805
1595877749,0.5249,0.8515,0.2679,0.5488,-11.7683,-4.3293
1595877749,0.5203,0.8804,0.2441,0.6098,-10.4268,-5.2439
1595877749,0.5052,0.8499,0.2479,-5.0610,-16.5244,-9.2683
1595877749,0.5037,0.8482,0.2466,-4.6951,-19.4512,-10.3049
1595877749,0.4893,0.8539,0.2529,-3.5366,-22.1341,-11.2195
1595877749,0.4813,0.8575,0.2620,-2.5000,-25.9146,-11.3415
1595877749,0.4815,0.8614,0.2256,-1.5244,-42.4390,-13.7805
1595877749,0.4667,0.8588,0.2090,-1.4024,-43.2927,-14.2073
1595877749,0.4777,0.9280,0.2236,-2.5610,-14.9390,-14.0854
1595877749,0.4675,0.9114,0.2249,-3.4756,-9.3902,-14.2683
1595877749,0.4420,0.9143,0.2264,-5.1829,-4.7561,-13.8415
1595877749,0.4260,0.9539,0.2404,-5.9756,-6.9512,-13.1707
1595877749,0.4009,0.9886,0.2250,-6.0976,-11.9512,-14.2073
1595877749,0.3997,0.9557,0.1991,-7.0122,-14.8171,-16.4634
1595877749,0.3995,0.9577,0.1938,-7.0122,-13.9024,-17.5000
1595877749,0.3571,0.9700,0.1885,-4.0244,-2.8049,-42.0122
1595877749,0.3442,0.9904,0.1672,-2.3780,7.4390,-56.7683
1595877749,0.3409,1.0018,0.1625,-2.2561,8.6585,-59.2073
1595877749,0.3518,1.0079,0.1618,-2.1951,8.9024,-61.8293
1595877749,0.3548,1.0200,0.1589,-1.9512,8.8415,-64.1463
1595877749,0.3554,1.0355,0.1633,-1.3415,8.9024,-66.0366
1595877749,0.3492,1.0386,0.1620,-0.9146,9.2683,-67.6829
1595877749,0.3444,1.0283,0.1578,-0.3049,9.8171,-69.2073
1595877749,0.3435,1.0090,0.1602,1.4634,7.5610,-71.3415
1595877749,0.2630,1.0065,0.2194,9.5732,20.4268,-57.7439
1595877749,0.2470,1.0032,0.2217,9.7561,19.3902,-55.4268
1595877750,0.2342,0.9971,0.2276,9.5122,17.6829,-52.9878
1595877750,0.2275,0.9941,0.2439,8.6585,12.0122,-47.6829
1595877750,0.2283,0.9865,0.2517,7.3780,9.3293,-45.2439
1595877750,0.2217,0.9816,0.2626,5.9146,6.5244,-40.3659
1595877750,0.2048,0.9619,0.2943,-0.3659,1.4024,-31.0976
1595877750,0.2025,0.9671,0.2971,-2.0122,1.9512,-29.6341
1595877750,0.1810,0.9835,0.3038,-6.7683,3.1707,-24.0854
1595877750,0.1739,0.9880,0.2997,-8.2927,3.4146,-22.2561
1595877750,0.1425,0.9694,0.3084,-13.7805,2.6220,-16.0366
1595877750,0.1385,0.9756,0.3206,-15.6707,1.9512,-13.5366
1595877750,0.1075,0.9678,0.3306,-26.3415,-4.5122,3.1707
1595877750,0.1038,0.9739,0.3380,-27.5610,-4.9390,6.2805
1595877750,0.0970,0.9702,0.3466,-28.8415,-5.5488,9.2073
1595877750,0.0909,0.9608,0.3526,-30.6098,-5.6098,11.8293
1595877750,0.0910,0.9586,0.3540,-33.1707,-4.0244,17.1341
1595877750,0.0874,0.9575,0.3506,-34.4512,-2.8659,20.1829
1595877750,0.0868,0.9532,0.3518,-35.4268,-1.8902,22.7439
1595877750,0.0995,0.9499,0.3721,-39.6951,6.1585,35.6707
1595877750,0.0941,0.9591,0.3795,-41.7073,10.8537,41.5854
1595877750,0.0806,0.9614,0.3856,-42.3171,14.6341,44.5732
1595877750,0.0634,0.9363,0.3893,-42.3171,12.8659,50.0610
1595877750,0.0588,0.9305,0.3904,-42.3780,11.7683,50.9146
1595877750,0.0553,0.9253,0.3954,-42.1341,10.4878,51.4634
1595877750,0.0555,0.8934,0.4133,-40.1829,6.3415,50.0610
1595877750,0.0513,0.8885,0.4155,-38.9024,5.3049,48.7195
1595877750,0.0524,0.8610,0.4132,-34.0854,0.4878,44.4512
1595877750,0.0543,0.8522,0.4147,-32.5000,-1.2805,42.9268
1595877750,0.0577,0.8442,0.4183,-30.7927,-2.3780,40.8537
1595877750,0.0616,0.8350,0.4259,-29.0244,-2.2561,38.5976
1595877750,0.0633,0.8273,0.4358,-27.6220,-1.1585,36.2805
1595877750,0.0627,0.8224,0.4473,-25.1220,2.8049,31.0366
1595877750,0.0659,0.8166,0.4517,-23.2317,4.0854,28.2927
1595877750,0.0661,0.8120,0.4512,-20.0000,5.3049,22.8659
1595877750,0.0751,0.8023,0.4579,-14.8780,4.6951,13.8415
1595877750,0.0812,0.7977,0.4642,-13.5366,4.6341,10.6707
1595877750,0.0857,0.8024,0.4707,-12.1951,5.3659,7.5000
1595877750,0.1027,0.8331,0.4724,-5.1220,9.2683,-5.9756
1595877750,0.1376,0.8586,0.4948,4.3902,9.6951,-15.3659
1595877750,0.1356,0.8632,0.4878,6.0366,10.9756,-16.3415
1595877750,0.1367,0.8678,0.4843,6.5854,11.5244,-16.7683
1595877750,0.1361,0.8599,0.4866,6.9512,12.4390,-17.8049
1595877750,0.1334,0.8772,0.4806,8.5976,15.6098,-17.9268
1595877750,0.1169,0.8780,0.4529,7.8049,12.8049,-15.4268
1595877750,0.1197,0.8764,0.4561,7.5000,11.5854,-14.7561
1595877750,0.1180,0.8781,0.4809,7.5000,9.3293,-13.1098
1595877751,0.1135,0.8810,0.4859,6.2805,8.6585,-7.5610
1595877751,0.1146,0.8750,0.4871,6.0976,8.9024,-6.7683
1595877751,0.1104,0.8752,0.4875,6.1585,9.5122,-6.1585
1595877751,0.1080,0.8769,0.4907,6.2195,10.1829,-5.3049
1595877751,0.0993,0.8845,0.4888,6.0976,11.9512,-2.3171
1595877751,0.0887,0.8829,0.5010,5.5488,12.5610,1.0366
1595877751,0.0833,0.8799,0.5013,5.5488,12.3171,2.6829
1595877751,0.0787,0.8753,0.4987,5.5488,11.9512,3.5366
1595877751,0.0757,0.8729,0.4976,5.6707,11.5854,4.2683
1595877751,0.0730,0.8766,0.4955,5.7317,11.0976,5.0000
1595877751,0.0738,0.8736,0.4943,5.7927,9.2683,6.2805
1595877751,0.0756,0.8710,0.4952,5.8537,8.9634,6.5244
1595877751,0.0736,0.8703,0.4981,5.8537,8.8415,6.6463
1595877751,0.0756,0.8764,0.4990,5.6707,8.8415,6.8902
1595877751,0.0789,0.8906,0.4905,4.3293,9.1463,6.7073
1595877751,0.0779,0.8945,0.4883,3.6585,9.5122,6.7683
1595877751,0.0684,0.9243,0.4698,-0.3659,9.0854,6.5854
1595877751,0.0692,0.9256,0.4662,-1.0976,7.8659,6.7073
1595877751,0.0698,0.9240,0.4599,-1.7683,6.4024,6.8902
1595877751,0.0699,0.9210,0.4531,-2.5000,5.0000,7.1951
1595877751,0.0727,0.9186,0.4535,-2.9878,3.8415,7.3780
1595877751,0.0768,0.9164,0.4537,-3.1098,2.9268,7.5000
1595877751,0.0821,0.9174,0.4592,-2.9878,2.0732,7.6220
1595877751,0.0801,0.9180,0.4634,-2.6829,1.9512,7.7439
1595877751,0.0786,0.9247,0.4644,-2.4390,2.0732,7.8659
1595877751,0.0801,0.9276,0.4627,-2.3171,2.1341,7.8659
1595877751,0.0781,0.9156,0.4655,-1.9512,1.5854,8.8415
1595877751,0.0792,0.9148,0.4614,-1.8293,0.9146,9.3902
1595877751,0.0833,0.9158,0.4626,-1.6463,0.0610,10.0610
1595877751,0.0883,0.9184,0.4669,-1.1585,-1.4634,10.4878
1595877751,0.0958,0.9122,0.4708,-1.0976,-3.1707,11.1585
1595877751,0.0988,0.9068,0.4767,-1.1585,-4.6341,11.8293
1595877751,0.1024,0.9075,0.4883,-0.9756,-7.1341,13.7805
1595877751,0.1364,0.9069,0.5078,-2.1951,-7.5000,16.0366
1595877751,0.1549,0.9225,0.5315,-5.1220,-3.4146,17.6829
1595877751,0.1533,0.9249,0.5309,-6.1585,-2.4390,18.1098
1595877751,0.1516,0.9265,0.5310,-7.5610,-1.7683,18.7805
1595877751,0.1545,0.9294,0.5375,-8.9634,-1.4634,19.6341
1595877751,0.1528,0.9287,0.5359,-12.2561,-0.9146,21.8902
1595877751,0.1481,0.9289,0.5349,-13.4756,-0.5488,22.7439
1595877751,0.1464,0.9294,0.5297,-14.8171,0.0610,23.4756
1595877751,0.1464,0.9289,0.5242,-16.1585,-0.1829,24.4512
1595877751,0.1436,0.9261,0.5201,-17.5610,-1.0976,25.1220
1595877751,0.1467,0.9215,0.5194,-18.9024,-2.1341,25.4878
1595877751,0.1438,0.9227,0.5198,-21.4024,-4.3293,26.1585
1595877752,0.1663,0.9369,0.5239,-26.4024,-8.0488,26.6463
1595877752,0.1490,0.9054,0.5036,-30.2439,-11.4634,27.8659
1595877752,0.1888,0.8265,0.4930,-31.4634,-28.9024,31.4024
1595877752,0.3066,0.7521,0.4998,-25.9756,-47.0122,38.6585
1595877752,0.3521,0.7491,0.5054,-24.5732,-49.8781,40.9756
1595877752,0.5182,0.6328,0.4947,-9.2683,-53.2317,61.8293
1595877752,0.5340,0.6158,0.5000,-8.5366,-52.6829,64.3902
1595877752,0.5440,0.6047,0.5059,-6.6463,-49.6341,66.4024
1595877752,0.5361,0.5676,0.5117,0.5488,-45.9756,72.6220
1595877752,0.5396,0.5656,0.5118,2.4390,-46.3415,73.9634
1595877752,0.6672,0.5958,0.5382,10.3049,-36.0976,78.5976
1595877752,0.6333,0.5557,0.5253,14.6341,-1.2805,87.8659
1595877752,0.6485,0.5670,0.5120,14.4512,-1.4024,89.3293
1595877752,0.6710,0.5854,0.5065,16.8902,0.0000,90.1829
1595877752,0.6820,0.5976,0.5040,18.3537,1.5244,90.6098
1595877752,0.6537,0.5894,0.5264,19.4512,15.7927,87.3781
1595877752,0.6498,0.5757,0.4784,21.0366,15.9756,84.8781
1595877752,0.6464,0.5941,0.4667,22.0732,15.9146,82.8049
1595877752,0.6522,0.6309,0.4630,22.5610,16.4634,79.8781
1595877752,0.6362,0.6479,0.4726,20.9756,18.4756,75.9756
1595877752,0.5921,0.6718,0.5002,21.7073,22.0732,65.1829
1595877752,0.5974,0.6672,0.4977,24.5732,18.1098,61.1585
1595877752,0.6580,0.7881,0.5009,24.3902,25.6098,30.1220
1595877752,0.6345,0.7038,0.4788,15.9146,38.9024,23.8415
1595877752,0.6227,0.6575,0.4653,15.1220,39.1463,22.7439
1595877752,0.6349,0.6629,0.4919,17.7439,36.8293,19.2683
1595877752,0.9061,0.7963,0.6178,20.1220,30.6707,14.4512
1595877752,0.8615,0.8284,0.6451,8.2317,35.5488,9.7561
1595877752,0.1233,0.6166,0.6273,-6.7073,185.1219,-39.9390
1595877752,0.1827,0.6456,0.7824,-5.3049,143.9024,-41.7073
1595877752,0.2057,0.6281,0.8660,-3.2927,81.4634,-43.9024
1595877752,0.2840,0.5751,0.6774,2.0732,3.7805,-38.4146
1595877752,0.4226,0.5388,0.5115,15.7927,-104.0854,-23.2317
1595877752,0.7172,0.6034,0.4573,22.0732,-209.9390,-25.0610
1595877752,0.9163,0.6093,0.4396,20.1220,-258.0488,-35.0610
1595877752,0.9299,0.6423,0.3643,12.5610,-218.2927,-28.2317
1595877752,0.8754,0.6923,0.3918,16.2805,-184.0854,-27.8049
1595877752,0.8422,0.6032,0.4599,-18.9024,-59.8171,-47.4390
1595877752,0.8491,0.5846,0.5099,-28.5366,-48.4756,-49.5122
1595877752,0.6570,0.5688,0.4414,-42.6220,25.0000,-58.0488
1595877752,0.6594,0.5757,0.4466,-41.9512,17.8659,-60.1829
1595877752,0.6506,0.5890,0.4626,-40.5488,3.6585,-59.8171
1595877752,0.6697,0.5923,0.4592,-39.8171,-14.5732,-60.4268
1595877752,0.7725,0.6413,0.4481,-29.9390,-94.0854,-55.7317
1595877752,0.8257,0.6448,0.4363,-29.5122,-110.3659,-51.8902
1595877752,0.8582,0.6525,0.3890,-27.9878,-130.3049,-42.9268
1595877752,0.8686,0.6658,0.3676,-26.5244,-133.5976,-37.8049
1595877752,0.8942,0.6604,0.3474,-28.1098,-135.5488,-33.7805
1595877752,0.8985,0.6442,0.3469,-29.6341,-134.3293,-29.5732
1595877752,0.9264,0.6238,0.3293,-34.4512,-110.4878,-17.0732
1595877752,0.9293,0.6141,0.3110,-34.6951,-98.6585,-13.1098
1595877752,0.9882,0.5380,0.2397,-23.8415,21.4634,14.0854
1595877752,0.9426,0.5259,0.2733,-23.5976,33.5976,15.8537
1595877752,0.9229,0.5168,0.3090,-23.5976,44.3293,16.6463
1595877753,0.8618,0.4472,0.3379,-24.3293,61.5854,25.3659
1595877753,0.8683,0.4418,0.3525,-23.3537,61.8293,26.9512
1595877753,0.8694,0.4329,0.3636,-23.0488,65.1220,28.0488
1595877753,0.8405,0.4121,0.3782,-21.7683,78.5366,29.7561
1595877753,0.8333,0.4113,0.3978,-19.5122,84.3293,30.9756
1595877753,0.8242,0.4073,0.4146,-18.1098,88.7805,31.9512
1595877753,0.7947,0.4063,0.4225,-17.7439,93.7805,32.5610
1595877753,0.7596,0.4203,0.4240,-16.5244,99.6951,32.6220
1595877753,0.7897,0.4581,0.4476,-13.1098,106.9512,34.0854
1595877753,0.7903,0.4520,0.4706,-12.9268,110.7927,35.6098
1595877753,0.6802,0.4374,0.5184,-9.1463,124.1463,34.0854
1595877753,0.5918,0.4520,0.5618,-7.6829,125.1829,34.8780
1595877753,0.5682,0.4469,0.5731,-8.2317,122.0122,35.3659
1595877753,0.5813,0.4608,0.5903,-9.1463,117.9268,34.4512
1595877753,0.6268,0.5261,0.6008,-2.7439,119.8171,35.1220
1595877753,0.5587,0.5153,0.5972,-0.0610,113.2927,33.6585
1595877753,0.5215,0.5190,0.6003,2.0122,101.8902,31.3415
1595877753,0.5141,0.5388,0.6198,3.8415,87.2561,30.4268
1595877753,0.5198,0.5201,0.6545,3.2317,73.2927,29.4512
1595877753,0.5165,0.5081,0.6884,1.0976,64.2073,27.8049
1595877753,0.5959,0.5246,0.7390,1.6463,64.6341,24.8171
1595877753,0.4266,0.5092,0.6638,0.5488,70.9146,17.5000
1595877753,0.4227,0.4960,0.6664,-1.7073,69.0244,15.1829
1595877753,0.4103,0.4838,0.7250,-0.6098,42.7439,9.2683
1595877753,0.4385,0.4760,0.7377,0.6707,34.5122,6.7073
1595877753,0.4584,0.5016,0.7167,5.9756,2.6220,-0.7927
1595877753,0.4448,0.5084,0.7234,7.0732,2.0122,-2.1951
1595877753,0.4751,0.5001,0.7611,6.2195,-0.8537,-3.8415
1595877753,0.4996,0.4686,0.7489,5.3049,-2.0732,-5.2439
1595877753,0.4968,0.4706,0.7521,7.5000,-1.6463,-5.3049
1595877753,0.4889,0.4763,0.7567,9.3902,-2.1341,-5.4268
1595877753,0.4690,0.4697,0.7551,9.1463,-3.7805,-7.0732
1595877753,0.4748,0.4506,0.8141,9.6341,-9.8171,-6.7683
1595877753,0.4826,0.4354,0.8033,9.1463,-11.4634,-5.4878
1595877753,0.4807,0.4285,0.7876,8.0488,-10.3049,-5.6098
1595877753,0.4881,0.4434,0.7582,7.1341,-8.2317,-5.7317
1595877753,0.5236,0.4396,0.7718,12.8049,-7.7439,-4.8171
1595877753,0.4795,0.4414,0.7635,10.6707,-1.8902,-6.4024
1595877753,0.4510,0.4882,0.8145,7.1341,12.9268,-6.8902
1595877753,0.4419,0.5085,0.8209,6.7683,11.0976,-5.8537
1595877753,0.5194,0.4994,0.8348,-3.4756,-8.2317,-4.3293
1595877753,0.4691,0.4883,0.8076,-4.7561,4.0244,-4.5122
1595877753,0.4609,0.5058,0.8051,-5.3049,9.6341,-4.8171
1595877753,0.5079,0.4949,0.8102,-9.5732,8.2927,-6.0976
1595877753,0.4445,0.4884,0.7620,-5.6707,14.0244,-3.7805
1595877753,0.4195,0.4930,0.6578,-0.3049,11.4634,-2.7439
1595877753,0.4973,0.4757,0.6514,3.0488,2.1951,0.1220
1595877754,0.5236,0.4777,0.7141,3.5976,-0.3659,1.7683
1595877754,0.4963,0.4577,0.7803,4.6341,-0.9756,2.4390
1595877754,0.5953,0.5129,0.8458,9.0244,3.1707,4.0244
1595877754,0.5758,0.4999,0.8502,7.5610,10.6098,6.0366
1595877754,0.3557,0.4642,0.7087,6.4634,34.6341,6.2805
1595877754,0.5751,0.5267,0.6718,10.0610,15.6098,13.0488
1595877754,0.4495,0.4858,0.7590,9.0244,8.9024,11.6463
1595877754,0.5295,0.5708,0.8586,6.8293,4.9390,6.7073
1595877754,0.4864,0.4908,0.7608,-0.4268,52.0122,11.1585
1595877754,0.4067,0.4722,0.8008,0.4878,72.1951,8.2927
1595877754,0.2979,0.5308,0.8571,1.0976,80.6707,7.4390
1595877754,0.2228,0.5109,0.8476,0.8537,75.0000,6.5244
1595877754,0.4428,0.5159,0.8224,2.1341,17.9878,6.8902
1595877754,0.3927,0.4623,0.8423,-1.7073,35.4268,4.8171
1595877754,0.3713,0.4777,0.8262,2.3171,46.7683,4.2073
1595877754,0.3082,0.4560,0.8149,2.1951,47.7439,3.4146
1595877754,0.2897,0.4761,0.8160,5.4878,35.2439,3.4756
1595877754,0.3356,0.4669,0.8240,3.7195,23.7805,4.3293
1595877754,0.3543,0.4537,0.8607,2.8049,17.5000,5.1220
1595877754,0.3196,0.4813,0.8236,-0.3659,56.0366,10.3049
1595877754,0.2596,0.4345,0.8682,-0.9146,43.4756,13.8415
1595877754,0.2766,0.4199,0.8116,-1.7073,39.7561,13.9024
1595877754,0.2316,0.4099,0.7869,-0.6707,43.8415,12.9268
1595877754,0.2106,0.4182,0.8166,2.0732,46.6463,11.5854
1595877754,0.2212,0.4349,0.8555,3.6585,46.4024,10.0000
1595877754,0.2131,0.4543,0.8737,4.0244,44.4512,10.4878
1595877754,0.2034,0.4654,0.9011,4.5122,40.4268,10.9756
1595877754,0.1445,0.4880,0.9583,3.9024,28.7805,10.0000
1595877754,0.2075,0.4769,0.8838,-0.1220,-4.9390,8.9634
1595877754,0.1542,0.4650,0.8831,0.8537,-16.7683,6.7073
1595877754,0.1282,0.4883,0.8679,2.2561,-25.5488,2.5000
1595877754,0.1721,0.5229,0.8705,2.1341,-34.5732,0.4878
1595877754,0.2927,0.5522,0.8591,0.9146,-43.1098,-0.3659
1595877754,0.3568,0.4770,0.8116,-5.0610,-3.5976,2.5000
1595877754,0.3505,0.4650,0.7844,-5.4878,-7.0732,4.8171
1595877754,0.3223,0.4512,0.7725,-2.9268,-2.1341,5.1220
1595877754,0.4056,0.4565,0.7979,-1.0366,2.4390,4.5122
1595877754,0.4404,0.4433,0.8368,-1.3415,5.6098,7.0732
1595877754,0.3074,0.4092,0.8115,0.2439,14.7561,9.4512
1595877754,0.1973,0.4286,0.7554,5.9756,24.9390,9.2683
1595877754,0.2126,0.4673,0.7645,9.6341,23.4146,7.8659
1595877754,0.2674,0.4888,0.7876,10.1220,12.8049,6.7683
1595877754,0.3355,0.4814,0.8336,6.8293,3.6585,7.5610
1595877754,0.3241,0.4500,0.8464,2.2561,4.5732,9.0854
1595877754,0.1141,0.4210,0.8242,7.3780,31.0366,5.9146
1595877754,0.1704,0.4576,0.8294,10.3049,34.3293,1.8293
1595877754,0.2247,0.4388,0.8159,6.9512,21.0366,2.7439
1595877754,0.2169,0.4122,0.8112,4.2073,6.9512,3.0488
1595877754,0.2369,0.3977,0.7758,4.2683,5.9756,-0.9146
1595877754,0.2376,0.3810,0.6942,6.5244,13.5366,-3.1707
1595877754,0.2921,0.5063,0.7729,15.6707,20.7927,-3.9634
1595877754,0.2748,0.5470,0.9736,13.4146,20.0000,-7.5000
1595877754,0.2504,0.5527,0.9373,14.9390,27.9268,-5.0000
1595877754,-0.0640,0.5199,0.9802,3.5976,-12.5610,1.2805
1595877754,-0.0496,0.5040,0.9232,1.1585,-37.5610,-3.8415
1595877754,0.1014,0.4927,0.8687,-0.6098,-62.5610,-13.0488
1595877754,0.1036,0.4688,0.8842,-1.1585,-81.0976,-4.7561
1595877754,0.1291,0.4721,0.8990,-1.3415,-92.3171,-0.3049
1595877754,0.2747,0.4899,0.8732,-2.3780,-100.6707,-3.6585
1595877754,0.4255,0.4756,0.8185,-6.7073,-99.6951,-1.7073
1595877754,0.4504,0.4482,0.7487,-9.1463,-83.2317,2.7439
1595877754,0.3679,0.4830,0.8671,2.8049,30.5488,-4.6951
1595877755,0.3872,0.5257,0.9121,0.8537,37.5000,-5.0000
1595877755,0.3300,0.4026,0.8652,-6.0976,28.7195,-0.3049
1595877755,0.2596,0.4045,0.8852,-4.8780,26.1585,-7.8049
1595877755,0.2836,0.4329,0.9040,2.5000,35.2439,-10.0000
1595877755,0.1216,0.4329,0.9342,2.9878,32.7439,-12.0122
1595877755,0.1703,0.4313,0.9173,2.3780,24.0244,-16.4024
1595877755,0.2998,0.4417,0.8456,-1.5244,17.0122,-17.7439
1595877755,0.2683,0.5690,0.8218,13.7195,42.6220,-18.7805
1595877755,0.3622,0.6886,0.8836,14.5732,18.6585,-13.7195
1595877755,0.1721,0.6503,1.0086,12.3780,22.6220,-1.2805
1595877755,0.1112,0.6347,0.9730,9.8780,14.6341,-0.8537
1595877755,0.0620,0.6647,1.0297,6.4024,-3.1098,-0.0610
1595877755,0.0018,0.6386,1.0454,-1.0366,-24.2073,2.1341
1595877755,0.2321,0.4741,0.8900,-25.7317,-99.9390,6.5244
1595877755,0.1136,0.4322,0.7000,-23.9634,-74.6951,8.7195
1595877755,0.3920,0.5106,0.5172,-12.8659,-51.2805,5.6707
1595877755,0.6220,0.4591,0.6063,-15.3049,-30.6707,11.8902
1595877755,0.3852,0.4044,0.6194,-9.0244,-7.5610,5.9756
1595877755,0.2642,0.4088,0.6489,-1.0366,21.7073,2.6829
1595877755,0.1985,0.4313,0.7183,1.2195,41.2195,3.1707
1595877755,0.1547,0.3435,0.7678,0.8537,61.2195,-2.6220
1595877755,0.1539,0.3593,0.9982,6.2195,62.0122,-1.1585
1595877755,0.0010,0.4567,1.0605,8.2927,26.3415,-16.9512
1595877755,0.0682,0.4509,0.9555,-3.2317,19.8171,-20.4268
1595877755,0.5131,0.5584,0.7345,-0.4268,-4.2683,-15.9756
1595877755,0.5983,0.6183,0.7623,6.2195,20.1829,-14.4512
1595877755,0.4659,0.6423,0.9102,14.1463,35.3049,-4.1463
1595877755,0.2668,0.5840,1.0117,12.9878,43.0488,4.2073
1595877755,-0.0535,0.5523,0.8962,2.5000,-31.2195,6.7683
1595877755,-0.0482,0.4736,0.9271,-6.2805,-83.6585,-0.9146
1595877755,0.0262,0.4203,0.8702,-12.6220,-99.5732,-2.2561
1595877755,0.0792,0.4822,0.8976,-10.3049,-103.4756,2.1341
1595877755,0.1134,0.4485,0.7950,-9.2683,-96.3415,2.0122
1595877755,0.2775,0.4121,0.5790,-6.0366,-81.0366,-2.7439
1595877755,0.8070,0.5045,0.5621,4.2073,-57.4390,9.8780
1595877755,0.7423,0.4796,0.6626,1.2195,-37.6220,9.4512
1595877755,0.2259,0.5005,0.8630,15.8537,52.8049,-9.6341
1595877755,0.3164,0.4765,1.1877,6.7683,45.6707,-3.9634
1595877755,0.2034,0.6208,0.8484,7.7439,43.2927,-3.9024
1595877755,0.2288,0.5321,0.7145,6.7073,19.6951,0.3049
1595877755,0.1114,0.5058,1.0377,10.9146,-9.1463,-23.0488
1595877755,0.2731,0.5793,0.9573,2.5610,-17.9878,-16.0976
1595877755,0.3737,0.4826,0.8663,-12.5610,-35.2439,-11.4634
1595877755,0.3868,0.4010,0.7577,-12.3780,-27.1951,-13.0488
1595877755,0.3754,0.3502,0.6606,-6.8902,9.5732,-14.8780
1595877755,0.3654,0.6333,1.0258,8.7195,0.7927,10.3659
1595877755,0.0625,0.6115,0.9255,7.0122,7.8049,15.2439
1595877755,-0.1022,0.5306,0.8777,-1.2195,-15.6707,9.9390
1595877755,-0.1964,0.4828,0.8647,-3.2317,-49.4512,7.3780
1595877755,-0.0491,0.4633,0.8579,-5.7317,-86.9512,1.3415
1595877755,0.3879,0.5460,0.6649,-3.8415,-106.2195,16.1585
1595877755,0.5148,0.3947,0.6104,-7.9878,-55.9146,7.9268
1595877756,0.3151,0.4082,0.5235,1.0366,-13.4146,3.6585
1595877756,0.4883,0.4941,0.8746,9.6341,-10.4878,-0.7317
1595877756,0.4579,0.4422,0.9611,7.4390,-8.5976,1.8902
1595877756,0.3274,0.4604,0.9081,5.0000,68.4146,1.9512
1595877756,0.0911,0.5145,0.8838,10.4268,100.8537,-0.7317
1595877756,0.0166,0.5138,0.8152,8.7805,103.4756,-4.1463
1595877756,0.0728,0.5076,0.7877,5.2439,80.4268,-5.5488
1595877756,0.3098,0.4046,0.8289,-3.7195,36.8293,-0.4268
1595877756,0.3586,0.5563,0.8410,6.6463,36.7683,3.1707
1595877756,0.2870,0.5723,0.8312,4.8171,29.1463,5.6707
1595877756,0.1679,0.5151,0.9213,10.1829,29.5122,6.3415
1595877756,0.2020,0.5466,1.0103,10.6707,30.3049,-2.1951
1595877756,0.2031,0.5860,1.0460,4.6341,33.6585,-6.5244
1595877756,0.1157,0.5783,1.0232,1.9512,36.5244,-5.5488
1595877756,0.0620,0.5870,0.9602,4.6951,28.8415,-6.5854
1595877756,0.1736,0.6223,1.0126,-0.3049,-120.1220,0.0610
1595877756,0.2642,0.4929,0.9334,-7.6220,-140.9146,2.0732
1595877756,0.2822,0.5562,0.6583,-9.1463,-124.5122,3.1707
1595877756,0.7006,0.5202,0.6801,-9.9390,-96.0366,8.3537
1595877756,0.6699,0.4279,0.5849,-15.7317,-55.5488,9.6341
1595877756,0.4616,0.4619,0.6050,-6.5244,19.4512,5.3659
1595877756,0.3318,0.4199,0.6716,-7.2561,36.2195,-0.6098
1595877756,0.1695,0.4924,0.7599,-2.8049,32.6829,-10.9756
1595877756,0.3421,0.5313,0.8522,-3.6585,13.6585,-13.1707
1595877756,0.4241,0.5900,0.8278,-5.1829,-4.1463,-10.6707
1595877756,0.5901,0.5226,0.7521,-7.2561,-9.0244,-2.9878
1595877756,0.5898,0.4673,0.7438,-10.4878,11.3415,-8.5366
1595877756,0.4195,0.4813,0.7638,-4.3293,49.4512,-8.9024
1595877756,0.1900,0.5178,0.8749,5.7927,76.2195,-7.0122
1595877756,0.2831,0.5366,0.9980,0.3659,6.5244,-13.2927
1595877756,0.4750,0.4628,0.7861,-5.0000,-13.4756,-3.9634
1595877756,0.5067,0.4247,0.7282,-0.2439,0.3049,-2.3780
1595877756,0.0771,0.4894,0.7105,17.8659,42.6220,-7.7439
1595877756,0.1714,0.4490,0.6716,15.1829,25.3049,-6.8902
1595877756,0.2636,0.4857,0.7296,14.4512,16.2195,-4.0244
1595877756,0.0455,0.5885,0.7999,33.0488,2.8049,9.8171
1595877756,0.0095,0.5890,0.8071,34.4512,-24.0244,11.0976
1595877756,-0.0734,0.4983,0.6727,34.4512,-58.7805,6.2195
1595877756,-0.2455,0.4210,0.4626,39.5732,-100.1829,2.8659
1595877756,0.0852,0.6700,0.4651,59.5732,-157.0122,-0.9756
1595877756,0.2646,0.8656,1.3149,15.2439,10.2439,-20.6707
1595877756,0.3339,0.8372,1.2277,1.4634,3.6585,-16.4024
1595877756,0.3948,0.7339,1.0679,-10.4268,-39.0244,-12.3780
1595877756,0.6095,0.6653,0.9284,-15.1829,-76.0976,-7.0122
1595877756,0.7222,0.5730,0.8809,-27.9878,-84.3293,-1.7073
1595877756,0.6055,0.5427,0.8902,-37.9878,-47.0732,-1.1585
1595877756,0.4229,0.5654,0.9211,-37.9268,11.2805,-4.6951
1595877756,0.2820,0.5563,0.9686,-37.7439,50.0610,-7.2561
1595877756,0.1561,0.5154,0.9450,-39.0244,54.3293,-7.6220
1595877756,0.0432,0.4869,0.8242,-38.4756,32.5610,-7.6829
1595877756,0.3617,0.4781,0.6979,-36.8293,-30.7927,-5.7927
1595877756,0.3035,0.4886,0.7037,-33.0488,-21.3415,-5.5488
1595877756,0.2656,0.5200,0.7101,-26.0976,-5.7317,-8.8415
1595877756,0.3990,0.4951,0.7759,-17.5610,11.8902,0.1829
1595877756,0.3444,0.4906,0.7218,-15.2439,14.6341,-0.6098
1595877756,0.3068,0.4795,0.6735,-13.1098,14.6951,-1.0366
1595877756,0.3056,0.4766,0.6465,-11.1585,14.0244,-1.4634
1595877756,0.3156,0.4746,0.6898,-9.6951,13.9024,-1.5244
1595877756,0.3212,0.4593,0.7692,-8.7805,15.5488,-2.3780
1595877756,0.3297,0.4471,0.8436,-7.7439,18.2317,-3.2317
1595877756,0.3333,0.4450,0.8684,-6.0976,19.7561,-2.7439
1595877756,0.3865,0.4489,0.8611,-4.8171,18.9024,-2.8049
1595877756,0.3585,0.4464,0.8224,-4.5122,17.0732,-2.8049
1595877757,0.2516,0.4490,0.7508,-1.5854,16.6463,-2.8049
1595877757,0.2262,0.4696,0.7267,2.0122,13.4756,-4.1463
1595877757,0.3114,0.4762,0.7543,1.8293,5.9756,-4.8171
1595877757,0.3431,0.4981,0.8168,1.9512,11.0976,-2.9878
1595877757,0.3615,0.4968,0.7938,2.7439,12.8049,-3.3537
1595877757,0.2737,0.4943,0.7126,8.3537,12.1951,-0.5488
1595877757,0.2993,0.5146,0.7461,11.2805,10.8537,-0.9756
1595877757,0.3068,0.5056,0.8043,10.6098,10.6098,-1.0366
1595877757,0.3347,0.5135,0.8321,9.5732,12.5610,-1.1585
1595877757,0.3463,0.5088,0.8467,9.2073,14.2683,-0.9146
1595877757,0.2897,0.5093,0.8321,6.9512,10.4268,-0.9756
1595877757,0.2891,0.5252,0.8017,6.4634,2.0732,-3.1098
1595877757,0.3055,0.5257,0.7947,5.7317,-2.4390,-2.5000
1595877757,0.3182,0.5200,0.7922,6.3415,-5.4268,-2.3171
1595877757,0.3319,0.5228,0.8052,6.8902,-5.4878,-2.6829
1595877757,0.2725,0.5273,0.8625,7.2561,6.3415,-2.6220
1595877757,0.2633,0.5184,0.8434,6.4024,6.4024,-2.2561
1595877757,0.2686,0.5212,0.8215,5.2439,5.3659,-2.2561
1595877757,0.3087,0.5652,0.8288,4.6951,-0.3049,-1.9512
1595877757,0.2479,0.5529,0.8807,3.2927,0.0000,-1.8902
1595877757,0.2899,0.5455,0.8847,3.5976,1.4634,-4.0244
1595877757,0.3131,0.5266,0.8736,1.1585,-1.4634,-2.5610
1595877757,0.2928,0.5515,0.8316,1.2195,-4.0854,-3.4146
1595877757,0.3340,0.5504,0.8267,0.9756,-3.1707,-3.3537
1595877757,0.3284,0.5360,0.8202,0.1829,-0.1829,-2.1341
1595877757,0.2706,0.5180,0.7870,0.3049,5.4878,-1.0366
1595877757,0.2514,0.5392,0.8308,6.3415,4.3902,0.6098
1595877757,0.2812,0.5457,0.8447,6.2195,0.7927,0.3659
1595877757,0.3384,0.5372,0.8691,3.6585,0.3659,1.2805
1595877757,0.3042,0.5399,0.8684,3.5366,7.5610,1.4024
1595877757,0.2744,0.5406,0.8443,3.2317,14.0244,0.8537
1595877757,0.2584,0.5461,0.8170,3.5366,15.3659,0.3659
1595877757,0.2610,0.5488,0.8153,3.7805,11.5854,0.7317
1595877757,0.2081,0.5220,0.7812,3.2317,3.3537,0.3049
1595877757,0.2358,0.5440,0.7801,4.9390,0.3659,-0.4878
1595877757,0.3104,0.5392,0.8351,2.8659,-7.9878,0.3659
1595877757,0.2975,0.5293,0.8175,1.4024,-3.2927,-0.0610
1595877757,0.2329,0.5308,0.8199,0.3049,3.1707,-1.0976
1595877757,0.2177,0.5415,0.8033,0.4268,8.3537,-2.1341
1595877757,0.2626,0.5377,0.9070,-4.5732,-0.5488,-2.9878
1595877757,0.3763,0.5169,0.8663,-7.0732,-0.7927,-2.0122
1595877757,0.2996,0.5112,0.8215,-5.1829,6.1585,1.2195
1595877757,0.3029,0.5206,0.8458,-2.8049,5.1829,0.1220
1595877757,0.2457,0.5259,0.8472,-1.2805,11.8902,-0.3049
1595877757,0.2020,0.5175,0.8065,-0.4878,16.3415,-1.0976
1595877757,0.2453,0.5807,0.8297,-2.1341,15.2439,0.4878
1595877757,0.2271,0.5602,0.8527,-3.2317,17.9268,0.4878
1595877757,0.2992,0.5308,0.8260,-3.9024,16.2805,0.5488
1595877757,0.3765,0.5027,0.7844,-5.7927,14.6341,3.3537
1595877757,0.2169,0.5197,0.7816,1.8902,25.9756,4.2073
1595877757,0.2422,0.5220,0.7916,2.4390,20.8537,4.0854
1595877757,0.2671,0.5212,0.7923,1.3415,14.2073,5.3049
1595877757,0.2768,0.5148,0.7917,2.1951,11.7683,6.5854
1595877757,0.3168,0.5221,0.8545,3.9024,21.8293,6.0976
1595877757,0.2734,0.5477,0.9448,6.9512,23.5976,7.2561
1595877757,0.1921,0.5546,0.9959,6.3415,16.4024,6.4024
1595877757,0.1337,0.5611,0.9601,4.5122,6.8902,4.3902
1595877757,0.2867,0.4552,0.7686,-0.4878,-12.6220,4.9390
1595877757,0.2994,0.4822,0.7926,3.5976,-1.7683,4.9390
1595877757,0.2081,0.5397,0.7650,8.1707,7.8049,6.0976
1595877758,0.2254,0.4840,0.7283,8.7805,6.5244,5.0000
1595877758,0.3306,0.4426,0.7437,17.6829,1.3415,9.1463
1595877758,0.2953,0.6178,0.7393,25.0000,18.4756,-1.5244
1595877758,0.3167,0.6522,0.8455,22.8049,1.8902,-1.0976
1595877758,0.3461,0.6747,0.9039,16.7073,-14.4512,3.1098
1595877758,0.2678,0.5988,0.9255,11.7683,-5.8537,7.8049
1595877758,0.1960,0.6028,0.8845,12.6829,4.6951,10.3049
1595877758,0.1667,0.6479,0.8626,12.9878,7.2561,9.7561
1595877758,0.1317,0.6605,0.8596,12.8659,-19.2683,11.2805
1595877758,0.1257,0.6328,0.8962,8.2317,-36.7073,14.9390
1595877758,0.2000,0.5368,0.8773,-8.5976,-46.4634,6.2195
1595877758,0.2747,0.4086,0.7386,-13.6585,-37.5000,4.0854
1595877758,0.4232,0.3736,0.6413,-12.4390,-30.7927,6.9512
1595877758,0.1993,0.5715,0.7086,10.9146,11.2195,-11.6463
1595877758,0.3826,0.5652,0.7643,5.0000,-7.0732,-12.0122
1595877758,0.4047,0.5534,0.7814,3.4756,-11.2195,-6.9512
1595877758,0.4075,0.5648,0.8643,3.7195,1.3415,-5.4878
1595877758,0.2406,0.5608,0.9346,-1.8902,27.0122,0.1220
1595877758,0.0356,0.5353,0.9055,-2.7439,30.1829,-15.4878
1595877758,0.2224,0.4719,0.7532,-14.6951,12.7439,-20.0610
1595877758,0.1687,0.4531,0.6629,-10.8537,4.4512,-19.7561
1595877758,0.2357,0.4888,0.6509,-2.3171,-2.2561,-18.6585
1595877758,0.3436,0.4800,0.6779,1.1585,-10.9146,-16.5244
1595877758,0.4859,0.6196,0.8120,5.7317,-2.8049,-12.4390
1595877758,0.4579,0.6392,0.8599,7.1951,13.3537,-8.5366
1595877758,0.2151,0.6352,0.9774,-2.8049,-23.7195,12.0122
1595877758,0.2604,0.6012,0.9720,-6.7683,-38.4756,12.1951
1595877758,0.0651,0.4503,0.6907,-14.8171,-63.6585,7.8659
1595877758,0.1031,0.4742,0.6417,-9.9390,-65.3049,10.2439
1595877758,0.2388,0.5065,0.5320,-3.2317,-73.2927,9.6341
1595877758,0.5915,0.5925,0.5097,3.7805,-80.9146,12.5000
1595877758,0.3974,0.5652,1.0026,-5.4268,41.7683,-4.5122
1595877758,0.4321,0.4333,0.7701,-11.1585,33.4756,10.5488
1595877758,0.1762,0.4285,0.8788,-6.4634,46.6463,-4.2683
1595877758,0.0840,0.5273,0.9582,0.6098,72.8049,-11.8902
1595877758,-0.0538,0.5533,0.8134,-4.8780,71.8293,-15.3049
1595877758,0.3962,0.4776,0.5914,-3.3537,-9.3293,-12.6220
1595877758,0.5389,0.4843,0.6326,-5.0610,-1.2195,-11.7683
1595877758,0.2308,0.6550,0.9432,6.4024,49.5732,8.7805
1595877758,0.1609,0.6583,0.9601,5.0610,38.2317,9.9390
1595877758,-0.0330,0.4427,0.8220,-11.9512,-37.7439,4.4512
1595877758,-0.2239,0.4116,0.6818,-5.9146,-55.7927,4.0854
1595877758,-0.1489,0.4830,0.6627,-2.5610,-82.1341,-3.0488
1595877758,0.0973,0.5079,0.6353,-2.3780,-107.3781,-4.5122
1595877758,0.5903,0.4340,0.5891,7.9268,-70.4878,5.4878
1595877758,0.3226,0.5148,0.5873,14.4512,-5.7927,4.9390
1595877758,0.3724,0.5651,1.0380,7.9268,39.6951,-7.3780
1595877758,0.3355,0.6238,0.8970,-1.9512,46.5854,-10.8537
1595877758,0.4059,0.6315,0.7388,-0.4878,48.2927,-0.6098
1595877758,0.3618,0.3844,0.7786,-3.7805,32.9268,8.5366
1595877758,0.1918,0.3657,0.8917,1.7683,36.7073,-5.8537
1595877759,0.0121,0.4437,0.7996,7.8049,56.8293,-13.5366
1595877759,-0.1259,0.4034,0.4996,8.2317,36.0366,-17.4390
1595877759,0.3160,0.6657,0.4573,16.2805,3.5366,-18.8415
1595877759,0.8864,0.7586,0.6132,12.1341,-36.2805,-18.4146
1595877759,0.2549,0.6172,0.8470,25.7317,22.0122,-10.9146
1595877759,0.3026,0.6027,0.8315,16.4024,-3.2927,-6.4634
1595877759,0.2800,0.6395,0.7192,15.6098,-127.3781,-12.9878
1595877759,0.5816,0.6640,0.8365,10.4268,-133.5976,-10.4268
1595877759,0.3341,0.6260,0.7089,-2.7439,-26.4024,-4.7561
1595877759,0.3463,0.6332,0.6858,-1.6463,-28.4146,-6.0366
1595877759,0.3651,0.6319,0.6965,-1.1585,-33.4146,-6.2195
1595877759,0.3589,0.6248,0.7394,-1.5244,-39.9390,-6.2195
1595877759,0.3810,0.6256,0.7838,-1.5854,-46.5854,-8.1707
1595877759,0.4185,0.6067,0.7780,-2.4390,-53.9634,-9.8171
1595877759,0.3915,0.5826,0.7001,-1.3415,-59.2683,-11.6463
1595877759,0.4120,0.5786,0.6495,0.3049,-59.8171,-13.8415
1595877759,0.5493,0.6886,0.6926,1.8902,-90.4878,-17.5610
1595877759,0.5142,0.6851,0.6878,1.8293,-87.6220,-15.6707
1595877759,0.4651,0.6944,0.6542,3.0488,-87.3781,-15.6098
1595877759,0.3958,0.7019,0.5828,7.0122,-161.7073,-13.5976
1595877759,0.4228,0.7075,0.6194,4.2683,-185.6098,-11.6463
1595877759,0.5681,0.6414,0.5346,-2.1951,-204.0854,-11.5244
1595877759,0.7054,0.6877,0.4054,-0.9146,-134.8781,-18.6585
1595877759,0.6530,0.6627,0.4756,-6.2195,-106.4024,-19.1463
1595877759,0.6268,0.6621,0.4569,-8.1098,-100.9146,-19.5732
1595877759,0.6566,0.6608,0.4183,-9.4512,-98.8415,-17.8659
1595877759,0.8580,0.6369,0.3028,-4.8780,-45.2439,-25.6707
1595877759,0.8350,0.6346,0.1667,-0.9146,-21.9512,-20.8537
1595877759,0.8719,0.6467,0.1406,2.0732,-18.7805,-17.2561
1595877759,0.8757,0.6395,0.1710,3.5366,-21.3415,-14.8780
1595877759,0.8756,0.6251,0.2232,4.4512,-25.1829,-15.2439
1595877759,0.8167,0.6085,0.3067,4.5122,-25.9146,-16.0976
1595877759,0.7300,0.5969,0.3460,3.1707,-26.8293,-15.7317
1595877759,0.7332,0.6119,0.3569,3.1707,-31.6463,-15.4878
1595877759,0.7641,0.6296,0.3391,3.6585,-38.4146,-14.1463
1595877759,0.7357,0.6254,0.1766,3.8415,-46.7073,-12.5000
1595877759,0.7914,0.6421,0.1689,4.5732,-46.2805,-13.3537
1595877759,0.8658,0.6583,0.1829,6.8902,-48.7805,-13.5366
1595877759,0.9159,0.6591,0.2091,8.3537,-48.7805,-12.9268
1595877759,0.9158,0.6508,0.2263,9.0854,-41.0366,-12.9268
1595877759,0.8666,0.6536,0.2402,9.7561,-28.2317,-12.6829
1595877759,0.8445,0.6708,0.2383,10.7317,-16.7683,-10.8537
1595877759,0.7146,0.6744,0.2292,9.5122,8.1098,-8.7195
1595877759,0.6906,0.6778,0.2468,9.3902,6.6463,-8.5976
1595877759,0.7316,0.6914,0.2501,8.2927,1.8902,-7.8049
1595877759,0.7617,0.7117,0.1989,2.1341,-6.8293,0.2439
1595877759,0.7709,0.7079,0.1783,2.3780,-3.3537,1.0976
1595877759,0.7114,0.7220,0.2473,-0.6707,16.1585,3.7805
1595877760,0.7145,0.7180,0.2426,-1.8293,15.3659,3.7195
1595877760,0.7267,0.7200,0.2451,-2.8049,12.5000,4.3293
1595877760,0.7213,0.7180,0.2475,-4.0244,10.8537,4.3293
1595877760,0.6891,0.7062,0.2603,-6.0366,12.0122,1.8293
1595877760,0.6599,0.6942,0.2603,-6.7683,5.9756,0.3659
1595877760,0.7249,0.6876,0.2356,-6.2195,-6.9512,1.4634
1595877760,0.7090,0.6777,0.2370,-5.8537,-5.7927,0.7927
1595877760,0.7148,0.6664,0.2321,-6.0366,-3.9024,0.3659
1595877760,0.7202,0.6588,0.2245,-2.9268,0.6098,-0.4268
1595877760,0.7328,0.6640,0.2235,-1.8293,1.4634,-1.4634
1595877760,0.7303,0.6623,0.2287,-0.6707,2.6220,-2.5000
1595877760,0.7145,0.6747,0.2208,3.4756,7.1951,-3.7195
1595877760,0.7244,0.6849,0.2318,4.1463,6.4024,-3.6585
1595877760,0.7526,0.6828,0.2628,3.1098,1.5854,-0.9756
1595877760,0.7426,0.6813,0.2672,2.1951,1.2805,0.1829
1595877760,0.7401,0.6919,0.2650,1.3415,1.0976,0.7317
1595877760,0.7252,0.7103,0.2769,-2.1951,1.7073,3.9634
1595877760,0.6819,0.7089,0.2806,-3.4756,5.2439,3.7195
1595877760,0.7203,0.7003,0.2618,-7.1951,-6.7683,5.0610
1595877760,0.7269,0.7044,0.2534,-7.3171,-9.0854,5.2439
1595877760,0.7604,0.7079,0.1996,-6.3415,-12.7439,7.4390
1595877760,0.7861,0.6967,0.2179,-5.4268,-14.4512,7.0122
1595877760,0.6424,0.6865,0.2305,-7.7439,-6.8293,4.8780
1595877760,0.7228,0.6766,0.2078,-7.8659,-13.7805,6.5244
1595877760,0.9034,0.6369,0.2371,-7.2561,-31.9512,13.8415
1595877760,0.9508,0.6379,0.2423,-6.8902,-27.0122,15.1829
1595877760,0.9048,0.6499,0.2370,-5.8537,1.7683,13.4756
1595877760,0.7885,0.5915,0.2288,-6.2195,40.1220,13.2927
1595877760,0.7734,0.5963,0.2252,-5.0000,44.9390,14.7561
1595877760,0.9116,0.5970,0.2454,-2.4390,40.7317,21.3415
1595877760,0.8660,0.5704,0.2654,4.4512,59.8781,28.8415
1595877760,0.9044,0.5667,0.2761,3.8415,63.2927,29.8171
1595877760,0.8539,0.5385,0.2673,2.7439,83.4756,36.2805
1595877760,0.8075,0.5441,0.2709,5.1220,84.9390,39.5732
1595877760,0.9224,0.4723,0.3162,5.9146,61.7073,48.1098
1595877760,0.8812,0.4647,0.3486,5.7317,65.2439,48.2317
1595877760,0.8284,0.4994,0.3856,5.9756,74.8171,49.0244
1595877760,0.7788,0.5311,0.4414,2.6220,91.5854,50.5488
1595877760,0.7543,0.5457,0.3953,3.8415,93.0488,51.8902
1595877760,0.7811,0.5779,0.3884,7.0122,90.7317,55.1220
1595877760,0.8163,0.5761,0.3986,7.1951,83.1707,56.7683
1595877760,0.8027,0.5599,0.4174,5.4268,76.6463,57.3781
1595877760,0.7908,0.5516,0.4531,5.7927,74.3902,56.7683
1595877760,0.7618,0.5674,0.5529,1.3415,87.1341,52.5000
1595877760,0.7177,0.5441,0.5140,-1.5854,107.0122,49.5122
1595877760,0.6818,0.5182,0.4576,-3.3537,114.8781,49.3902
1595877760,0.6695,0.5226,0.4112,-1.7073,119.3293,49.5122
1595877760,0.7165,0.5443,0.4075,1.5854,117.1951,48.5976
1595877760,0.7192,0.5406,0.4509,1.5244,111.6463,48.9024
1595877761,0.6395,0.5701,0.6212,3.7805,100.1829,42.3171
1595877761,0.6088,0.5438,0.6274,2.2561,102.4390,40.4268
1595877761,0.5433,0.5270,0.6006,3.4146,109.9390,36.2805
1595877761,0.4957,0.5140,0.5936,4.7561,93.7195,27.3780
1595877761,0.4926,0.4973,0.6483,1.6463,83.9634,25.8537
1595877761,0.4765,0.4527,0.7293,-1.8293,70.6098,15.6707
1595877761,0.4459,0.4174,0.6848,-1.7683,65.3659,11.4024
1595877761,0.4111,0.4182,0.6694,0.6098,61.1585,8.4146
1595877761,0.4175,0.4334,0.6744,2.3780,51.4634,5.0610
1595877761,0.5751,0.4691,0.7566,7.6829,-0.1829,-3.4146
1595877761,0.5731,0.4781,0.7850,7.5610,4.7561,-4.0854
1595877761,0.5325,0.4530,0.6907,3.2317,18.1098,-4.5732
1595877761,0.5704,0.4857,0.6655,6.2195,24.2683,-4.3293
1595877761,0.4971,0.4454,0.7408,4.7561,16.5244,-4.5122
1595877761,0.5314,0.4267,0.7702,4.8780,9.5732,-6.2195
1595877761,0.5948,0.4323,0.7632,2.9268,8.8415,-5.7317
1595877761,0.5607,0.4460,0.7580,2.9878,16.7073,-5.6098
1595877761,0.4388,0.4828,0.6844,9.0244,24.3902,-7.8049
1595877761,0.4747,0.4977,0.7379,8.2927,19.5732,-7.6220
1595877761,0.5296,0.4935,0.7885,6.0976,10.7317,-6.7073
1595877761,0.5582,0.4936,0.8194,4.6951,1.4634,-4.2073
1595877761,0.5698,0.4997,0.8398,5.4268,-5.4878,-2.8049
1595877761,0.5544,0.4935,0.8235,2.8049,-7.4390,-2.0732
1595877761,0.5507,0.4944,0.8113,1.2805,-5.4268,-0.6707
1595877761,0.5540,0.4944,0.7979,-1.2805,-8.6585,0.6707
1595877761,0.5417,0.4538,0.8058,-5.3659,-10.1220,1.6463
1595877761,0.5119,0.4225,0.8016,-8.5366,-7.1951,1.2195
1595877761,0.4965,0.4359,0.7760,-6.7073,-3.1707,-0.1829
1595877761,0.4897,0.4323,0.7514,-6.0976,-5.8537,0.5488
1595877761,0.4883,0.4043,0.7253,-7.8049,-15.9146,-0.9146
1595877761,0.5017,0.3884,0.7241,-8.4146,-16.0976,-1.5854
1595877761,0.5191,0.3548,0.6758,-3.4146,-1.0366,-1.4024
1595877761,0.5103,0.3584,0.6630,-0.7317,-1.2195,-1.9512
1595877761,0.5062,0.3663,0.6581,1.4634,-2.8659,-2.1341
1595877761,0.5255,0.3786,0.6658,3.6585,-4.7561,-2.8049
1595877761,0.5482,0.4017,0.6936,5.7317,-5.9756,-2.8049
1595877761,0.5562,0.4193,0.7242,7.5000,-6.2195,-2.3780
1595877761,0.5611,0.4324,0.7507,9.5732,-5.3049,-2.4390
1595877761,0.5678,0.4387,0.7580,10.8537,-2.9268,-2.5000
1595877761,0.5406,0.4395,0.7448,11.0976,1.7073,-2.4390
1595877761,0.5428,0.4757,0.7298,12.6829,9.8171,-2.6829
1595877761,0.5708,0.4961,0.8063,12.1341,10.4878,0.3049
1595877761,0.5722,0.5310,0.8527,11.9512,14.5732,0.6098
1595877761,0.5281,0.5145,0.8826,8.5976,20.9146,0.3659
1595877761,0.5060,0.4872,0.8792,4.2683,23.8415,-1.3415
1595877761,0.5042,0.4736,0.8492,0.6707,23.5366,-1.4634
1595877761,0.5300,0.4680,0.8230,-0.9756,20.7317,-0.4268
1595877761,0.5495,0.4739,0.8011,-1.0976,15.9756,-0.1220
1595877761,0.5442,0.4697,0.7859,-1.7073,12.6220,0.3049
1595877761,0.6082,0.4122,0.7791,-1.9512,22.5000,6.2195
1595877761,0.6108,0.3864,0.7615,-2.1341,32.6220,7.6829
1595877761,0.5709,0.4170,0.7435,0.0610,48.3537,8.9024
1595877761,0.4560,0.4139,0.7990,2.3171,62.1951,15.7317
1595877761,0.4320,0.4091,0.8250,1.8293,61.5854,18.2317
1595877761,0.4352,0.3995,0.8563,-5.0610,82.7439,25.7927
1595877761,0.3685,0.3951,0.8644,-3.4146,93.5976,25.1220
1595877761,0.3431,0.3928,0.8712,-3.1098,96.8902,26.2805
1595877761,0.3080,0.3810,0.8744,-3.1707,92.1951,29.2073
1595877761,0.3260,0.4019,0.8519,-2.0122,74.6341,32.3780
1595877761,0.3416,0.4098,0.8436,-1.8902,77.3171,31.9512
1595877761,0.3628,0.4016,0.8059,-1.7073,83.0488,32.0122
1595877761,0.3067,0.3983,0.7873,-0.6098,90.1220,32.1341
1595877761,0.2456,0.3922,0.7734,2.8049,94.2683,30.9756
1595877762,0.2390,0.4070,0.7628,6.2805,94.5122,27.1341
1595877762,0.2535,0.4131,0.7376,9.5732,87.3171,25.3049
1595877762,0.2818,0.4437,0.7469,13.7805,71.5244,24.4512
1595877762,0.3176,0.4695,0.7787,17.3780,48.5366,23.4146
1595877762,0.2306,0.4702,0.8718,17.4390,26.2805,9.9390
1595877762,0.2062,0.4727,0.8705,16.5854,33.2317,8.2317
1595877762,0.1848,0.4732,0.8213,11.3415,37.5610,8.4146
1595877762,0.3082,0.4878,0.7606,12.8659,20.7927,5.7927
1595877762,0.3548,0.4974,0.8052,14.3293,0.3049,6.9512
1595877762,0.3109,0.4781,0.8936,15.1220,-18.8415,6.4024
1595877762,0.4274,0.3908,0.7568,9.3293,-15.4268,8.2317
1595877762,0.3298,0.3870,0.7430,16.7683,0.3659,9.4512
1595877762,0.2300,0.3821,0.6550,24.3293,5.0000,9.1463
