time,ax,ay,az,gx,gy,gz
1595877718,-0.0720,-0.9811,-0.0294,-0.2439,-0.0610,-0.0610
1595877718,-0.0708,-0.9918,-0.0277,-0.2439,-0.0610,-0.1220
1595877718,-0.0702,-0.9915,-0.0285,-0.3659,0.0000,-0.0610
1595877718,-0.0712,-0.9897,-0.0301,-0.3659,0.0000,-0.1220
1595877718,-0.0729,-0.9887,-0.0302,-0.3659,0.0000,-0.1220
1595877718,-0.0722,-0.9892,-0.0295,-0.2439,-0.1220,-0.0610
1595877718,-0.0724,-0.9899,-0.0294,-0.2439,-0.0610,-0.1220
1595877718,-0.0717,-0.9890,-0.0292,-0.1829,-0.0610,-0.0610
1595877718,-0.0722,-0.9893,-0.0283,-0.3049,0.0000,-0.0610
1595877718,-0.0707,-0.9906,-0.0281,-0.3049,0.0000,-0.0610
1595877718,-0.0707,-0.9897,-0.0295,-0.2439,0.0000,-0.0610
1595877718,-0.0702,-0.9901,-0.0280,-0.3049,0.0610,-0.0610
1595877718,-0.0715,-0.9907,-0.0296,-0.3659,-0.0610,0.0000
1595877718,-0.0716,-0.9901,-0.0308,-0.3049,-0.0610,-0.1220
1595877718,-0.0716,-0.9892,-0.0302,-0.2439,0.0000,-0.0610
1595877718,-0.0709,-0.9906,-0.0294,-0.2439,-0.0610,0.0000
1595877718,-0.0705,-0.9914,-0.0286,-0.3049,0.0000,-0.0610
1595877718,-0.0723,-0.9905,-0.0314,-0.3659,0.0610,-0.1220
1595877718,-0.0713,-0.9884,-0.0314,-0.2439,0.0000,-0.1220
1595877718,-0.0694,-0.9894,-0.0292,-0.3049,-0.0610,-0.1220
1595877718,-0.0688,-0.9897,-0.0277,-0.3049,0.0000,-0.0610
1595877718,-0.0714,-0.9893,-0.0305,-0.3049,0.0610,-0.0610
1595877718,-0.0703,-0.9882,-0.0297,-0.3659,0.0000,-0.0610
1595877718,-0.0730,-0.9901,-0.0290,-0.3049,0.0000,-0.0610
1595877718,-0.0722,-0.9910,-0.0306,-0.3049,-0.0610,-0.0610
1595877718,-0.0724,-0.9916,-0.0290,-0.2439,-0.0610,-0.0610
1595877718,-0.0713,-0.9901,-0.0262,-0.3049,0.0610,-0.0610
1595877718,-0.0707,-0.9903,-0.0294,-0.1829,0.0610,-0.1220
1595877718,-0.0718,-0.9899,-0.0301,-0.1829,-0.0610,-0.1220
1595877718,-0.0736,-0.9905,-0.0285,-0.3049,-0.0610,-0.1220
1595877718,-0.0718,-0.9889,-0.0278,-0.3659,-0.0610,-0.0610
1595877718,-0.0721,-0.9900,-0.0295,-0.2439,0.0000,-0.0610
1595877718,-0.0723,-0.9889,-0.0284,-0.2439,-0.0610,-0.0610
1595877718,-0.0717,-0.9897,-0.0284,-0.2439,0.0000,-0.1829
1595877718,-0.0718,-0.9888,-0.0285,-0.2439,-0.0610,-0.1220
1595877718,-0.0710,-0.9886,-0.0300,-0.3659,-0.0610,-0.1220
1595877718,-0.0715,-0.9885,-0.0298,-0.3049,-0.1220,0.0000
1595877718,-0.0713,-0.9877,-0.0291,-0.3049,-0.0610,-0.0610
1595877718,-0.0712,-0.9890,-0.0292,-0.3659,0.0000,-0.1220
1595877718,-0.0701,-0.9890,-0.0292,-0.2439,0.0000,-0.1220
1595877718,-0.0704,-0.9902,-0.0307,-0.2439,0.0000,-0.0610
1595877718,-0.0704,-0.9905,-0.0299,-0.2439,-0.0610,-0.1220
1595877718,-0.0717,-0.9898,-0.0275,-0.3049,0.0610,-0.1220
1595877718,-0.0705,-0.9888,-0.0280,-0.3049,0.0610,0.0000
1595877718,-0.0721,-0.9911,-0.0290,-0.1829,0.0000,-0.0610
1595877718,-0.0716,-0.9910,-0.0280,-0.1829,0.0000,-0.0610
1595877718,-0.0718,-0.9897,-0.0289,-0.3659,-0.0610,-0.0610
1595877718,-0.0715,-0.9912,-0.0284,-0.3049,-0.0610,0.0000
1595877718,-0.0718,-0.9910,-0.0291,-0.2439,0.0000,-0.0610
1595877718,-0.0714,-0.9899,-0.0298,-0.2439,0.0610,-0.0610
1595877718,-0.0714,-0.9901,-0.0290,-0.3049,0.0000,-0.0610
1595877718,-0.0709,-0.9896,-0.0284,-0.3049,-0.0610,-0.0610
1595877718,-0.0707,-0.9914,-0.0303,-0.2439,0.0000,-0.0610
1595877718,-0.0717,-0.9894,-0.0309,-0.1829,-0.0610,-0.0610
1595877718,-0.0698,-0.9893,-0.0296,-0.3049,-0.0610,0.0000
1595877719,-0.0697,-0.9904,-0.0292,-0.3049,0.0610,-0.0610
1595877719,-0.0717,-0.9900,-0.0273,-0.2439,0.0610,-0.1220
1595877719,-0.0726,-0.9918,-0.0293,-0.3049,-0.0610,-0.1220
1595877719,-0.0701,-0.9893,-0.0291,-0.3659,-0.0610,-0.1220
1595877719,-0.0702,-0.9901,-0.0298,-0.3049,0.0000,-0.1220
1595877719,-0.0721,-0.9897,-0.0292,-0.2439,0.0000,-0.1220
1595877719,-0.0728,-0.9890,-0.0297,-0.3049,-0.0610,-0.1220
1595877719,-0.0719,-0.9888,-0.0316,-0.2439,-0.0610,-0.0610
1595877719,-0.0717,-0.9910,-0.0274,-0.3049,-0.0610,-0.1220
1595877719,-0.0712,-0.9918,-0.0289,-0.2439,-0.0610,-0.1220
1595877719,-0.0716,-0.9897,-0.0300,-0.3049,-0.0610,-0.0610
1595877719,-0.0707,-0.9890,-0.0290,-0.3659,0.0000,-0.1220
1595877719,-0.0702,-0.9902,-0.0284,-0.2439,-0.0610,-0.1220
1595877719,-0.0703,-0.9903,-0.0292,-0.2439,-0.0610,-0.1220
1595877719,-0.0715,-0.9888,-0.0277,-0.2439,0.0000,-0.0610
1595877719,-0.0732,-0.9894,-0.0296,-0.2439,0.0000,-0.0610
1595877719,-0.0711,-0.9888,-0.0291,-0.2439,0.0000,-0.0610
1595877719,-0.0718,-0.9896,-0.0306,-0.2439,0.0000,0.0000
1595877719,-0.0717,-0.9899,-0.0278,-0.3049,-0.1829,-0.1220
1595877719,-0.0698,-0.9921,-0.0305,-0.3659,-0.0610,-0.1220
1595877719,-0.0705,-0.9910,-0.0294,-0.3049,0.0000,-0.1220
1595877719,-0.0729,-0.9892,-0.0286,-0.3049,0.0000,0.0000
1595877719,-0.0729,-0.9886,-0.0292,-0.3049,0.0610,-0.1220
1595877719,-0.0709,-0.9897,-0.0302,-0.3049,0.0000,-0.0610
1595877719,-0.0725,-0.9915,-0.0284,-0.2439,0.0610,-0.0610
1595877719,-0.0721,-0.9906,-0.0272,-0.3049,0.0000,-0.1220
1595877719,-0.0691,-0.9888,-0.0264,-0.2439,0.0000,-0.1220
1595877719,-0.0704,-0.9898,-0.0275,-0.3049,0.0000,-0.0610
1595877719,-0.0734,-0.9879,-0.0287,-0.2439,0.0000,-0.0610
1595877719,-0.0712,-0.9901,-0.0277,-0.3049,0.0000,0.0000
1595877719,-0.0715,-0.9896,-0.0284,-0.3049,-0.0610,-0.0610
1595877719,-0.0729,-0.9891,-0.0303,-0.3049,-0.0610,-0.0610
1595877719,-0.0710,-0.9899,-0.0295,-0.2439,-0.0610,-0.1220
1595877719,-0.0712,-0.9899,-0.0282,-0.2439,-0.0610,-0.0610
1595877719,-0.0708,-0.9901,-0.0289,-0.3049,0.0610,-0.0610
1595877719,-0.0710,-0.9907,-0.0276,-0.3659,0.0610,-0.1220
1595877719,-0.0711,-0.9890,-0.0282,-0.3659,0.0000,-0.0610
1595877719,-0.0705,-0.9890,-0.0283,-0.3659,-0.0610,-0.1220
1595877719,-0.0729,-0.9911,-0.0297,-0.3049,0.0610,-0.0610
1595877719,-0.0730,-0.9899,-0.0272,-0.3049,-0.0610,-0.0610
1595877719,-0.0729,-0.9906,-0.0286,-0.2439,-0.0610,-0.1220
1595877719,-0.0718,-0.9895,-0.0281,-0.1829,-0.0610,-0.1829
1595877719,-0.0710,-0.9907,-0.0302,-0.3049,-0.0610,0.0000
1595877719,-0.0725,-0.9882,-0.0302,-0.3049,-0.0610,-0.0610
1595877719,-0.0713,-0.9886,-0.0301,-0.2439,-0.0610,-0.0610
1595877719,-0.0699,-0.9894,-0.0270,-0.3659,-0.0610,-0.1220
1595877719,-0.0719,-0.9896,-0.0270,-0.3659,0.0000,-0.1829
1595877719,-0.0720,-0.9902,-0.0278,-0.3659,0.0000,-0.1220
1595877719,-0.0701,-0.9903,-0.0287,-0.2439,0.0000,-0.0610
1595877719,-0.0703,-0.9893,-0.0266,-0.2439,0.0000,-0.1220
1595877719,-0.0707,-0.9895,-0.0303,-0.3049,0.0610,-0.1220
1595877719,-0.0731,-0.9911,-0.0281,-0.2439,0.0000,-0.0610
1595877719,-0.0708,-0.9913,-0.0287,-0.2439,-0.0610,-0.1220
1595877719,-0.0726,-0.9878,-0.0272,-0.4268,0.0000,-0.1220
1595877719,-0.0722,-0.9904,-0.0275,-0.4268,0.0000,-0.1220
1595877719,-0.0704,-0.9891,-0.0300,-0.3049,0.0000,-0.1220
1595877719,-0.0715,-0.9898,-0.0297,-0.2439,0.0000,-0.1220
1595877719,-0.0705,-0.9886,-0.0302,-0.3049,-0.0610,-0.0610
1595877719,-0.0718,-0.9896,-0.0286,-0.3049,-0.0610,0.0610
1595877719,-0.0726,-0.9901,-0.0278,-0.3049,0.0000,-0.0610
1595877719,-0.0727,-0.9911,-0.0280,-0.3049,-0.0610,-0.1220
1595877719,-0.0703,-0.9912,-0.0281,-0.2439,-0.0610,-0.1220
1595877719,-0.0709,-0.9898,-0.0280,-0.3049,-0.0610,-0.1220
1595877719,-0.0710,-0.9894,-0.0294,-0.2439,0.0000,-0.1829
1595877719,-0.0720,-0.9898,-0.0302,-0.3049,-0.0610,-0.0610
1595877719,-0.0724,-0.9887,-0.0289,-0.3659,0.0000,-0.0610
1595877719,-0.0716,-0.9884,-0.0286,-0.2439,0.0000,-0.1220
1595877719,-0.0715,-0.9901,-0.0289,-0.3049,-0.0610,-0.1220
1595877719,-0.0701,-0.9910,-0.0284,-0.3049,-0.0610,-0.1220
1595877719,-0.0710,-0.9891,-0.0285,-0.2439,-0.0610,-0.1220
1595877719,-0.0710,-0.9889,-0.0274,-0.3049,-0.0610,-0.0610
1595877719,-0.0704,-0.9909,-0.0284,-0.1829,0.0000,-0.1220
1595877719,-0.0701,-0.9893,-0.0290,-0.3659,-0.0610,-0.1220
1595877719,-0.0715,-0.9895,-0.0296,-0.2439,-0.0610,-0.0610
1595877719,-0.0717,-0.9903,-0.0294,-0.2439,0.0000,-0.0610
1595877719,-0.0728,-0.9894,-0.0311,-0.3049,0.0000,-0.1220
1595877719,-0.0705,-0.9877,-0.0299,-0.3049,-0.0610,-0.1220
1595877719,-0.0701,-0.9897,-0.0268,-0.3049,0.0610,-0.1220
1595877719,-0.0723,-0.9893,-0.0266,-0.3049,-0.0610,-0.0610
1595877719,-0.0726,-0.9915,-0.0289,-0.3049,-0.0610,0.0000
1595877719,-0.0708,-0.9919,-0.0286,-0.3049,0.0000,0.0000
1595877719,-0.0729,-0.9903,-0.0291,-0.2439,-0.0610,-0.0610
1595877719,-0.0715,-0.9901,-0.0294,-0.2439,0.0000,-0.0610
1595877719,-0.0720,-0.9901,-0.0295,-0.3049,-0.0610,-0.0610
1595877719,-0.0707,-0.9885,-0.0283,-0.3049,-0.0610,-0.1220
1595877719,-0.0713,-0.9886,-0.0273,-0.3659,-0.0610,-0.0610
1595877719,-0.0719,-0.9891,-0.0295,-0.3049,-0.0610,-0.1220
1595877719,-0.0715,-0.9897,-0.0306,-0.2439,-0.0610,-0.0610
1595877719,-0.0721,-0.9913,-0.0283,-0.3659,0.0000,-0.0610
1595877719,-0.0740,-0.9891,-0.0272,-0.3659,-0.0610,-0.0610
1595877719,-0.0731,-0.9894,-0.0289,-0.3049,-0.1220,-0.0610
1595877719,-0.0715,-0.9891,-0.0279,-0.3049,0.0000,-0.1220
1595877719,-0.0709,-0.9900,-0.0273,-0.2439,-0.0610,-0.0610
1595877719,-0.0705,-0.9902,-0.0279,-0.2439,0.0000,-0.0610
1595877719,-0.0699,-0.9901,-0.0288,-0.3049,0.0000,0.0000
1595877719,-0.0726,-0.9907,-0.0291,-0.1829,-0.0610,-0.0610
1595877719,-0.0717,-0.9892,-0.0285,-0.3049,0.0000,-0.0610
1595877719,-0.0709,-0.9890,-0.0264,-0.3659,0.0000,-0.0610
1595877719,-0.0711,-0.9893,-0.0269,-0.3049,-0.0610,-0.1220
1595877719,-0.0703,-0.9904,-0.0319,-0.3659,-0.0610,0.0000
1595877719,-0.0719,-0.9911,-0.0299,-0.3049,-0.0610,0.0000
1595877720,-0.0745,-0.9919,-0.0272,-0.3659,-0.1220,-0.1220
1595877720,-0.0719,-0.9908,-0.0264,-0.4268,-0.0610,0.0000
1595877720,-0.0734,-0.9891,-0.0306,-0.3659,0.0000,-0.1220
1595877720,-0.0711,-0.9885,-0.0308,-0.2439,-0.0610,-0.1829
1595877720,-0.0717,-0.9888,-0.0271,-0.3049,-0.0610,-0.0610
1595877720,-0.0733,-0.9894,-0.0294,-0.4268,0.0000,-0.1220
1595877720,-0.0711,-0.9899,-0.0290,-0.3049,0.0000,-0.0610
1595877720,-0.0718,-0.9909,-0.0288,-0.3049,0.0000,-0.1220
1595877720,-0.0714,-0.9914,-0.0317,-0.3049,0.0000,0.0000
1595877720,-0.0708,-0.9912,-0.0292,-0.3049,0.0610,0.0000
1595877720,-0.0718,-0.9907,-0.0269,-0.3049,0.0000,-0.0610
1595877720,-0.0723,-0.9901,-0.0267,-0.3049,-0.0610,-0.0610
1595877720,-0.0715,-0.9905,-0.0286,-0.2439,0.0000,-0.1220
1595877720,-0.0715,-0.9899,-0.0261,-0.3659,0.0000,-0.0610
1595877720,-0.0725,-0.9897,-0.0280,-0.2439,-0.0610,-0.1220
1595877720,-0.0716,-0.9914,-0.0285,-0.2439,0.0000,-0.1220
1595877720,-0.0717,-0.9908,-0.0296,-0.2439,-0.0610,-0.0610
1595877720,-0.0731,-0.9907,-0.0308,-0.2439,-0.0610,-0.0610
1595877720,-0.0707,-0.9900,-0.0300,-0.3659,0.0000,-0.1220
1595877720,-0.0714,-0.9907,-0.0301,-0.2439,-0.0610,-0.1220
1595877720,-0.0719,-0.9908,-0.0303,-0.3049,0.0000,-0.0610
1595877720,-0.0714,-0.9922,-0.0300,-0.2439,0.0000,0.0000
1595877720,-0.0687,-0.9906,-0.0293,-0.2439,-0.0610,-0.1220
1595877720,-0.0714,-0.9890,-0.0283,-0.3659,0.0610,-0.1829
1595877720,-0.0721,-0.9889,-0.0291,-0.3659,0.0610,-0.0610
1595877720,-0.0724,-0.9896,-0.0283,-0.3049,0.0000,-0.0610
1595877720,-0.0721,-0.9893,-0.0278,-0.2439,0.0610,-0.1220
1595877720,-0.0720,-0.9895,-0.0275,-0.3049,0.0610,-0.1220
1595877720,-0.0721,-0.9901,-0.0283,-0.3049,0.0610,-0.0610
1595877720,-0.0704,-0.9904,-0.0286,-0.3659,0.0000,0.0000
1595877720,-0.0718,-0.9905,-0.0283,-0.3659,-0.0610,-0.0610
1595877720,-0.0714,-0.9904,-0.0278,-0.3049,0.0000,-0.0610
1595877720,-0.0718,-0.9897,-0.0275,-0.3659,0.0000,-0.0610
1595877720,-0.0693,-0.9897,-0.0289,-0.3049,0.0000,-0.1220
1595877720,-0.0717,-0.9894,-0.0272,-0.3049,-0.0610,-0.0610
1595877720,-0.0719,-0.9883,-0.0269,-0.3659,-0.0610,-0.0610
1595877720,-0.0714,-0.9907,-0.0261,-0.3049,0.0000,-0.0610
1595877720,-0.0709,-0.9913,-0.0255,-0.2439,0.0000,-0.1220
1595877720,-0.0704,-0.9895,-0.0270,-0.2439,0.0000,-0.0610
1595877720,-0.0722,-0.9900,-0.0292,-0.3049,0.0000,-0.0610
1595877720,-0.0714,-0.9908,-0.0289,-0.3049,0.0000,-0.0610
1595877720,-0.0705,-0.9894,-0.0276,-0.1829,0.0610,-0.1220
1595877720,-0.0717,-0.9890,-0.0304,-0.3049,0.0000,0.0000
1595877720,-0.0703,-0.9906,-0.0280,-0.2439,0.0000,-0.0610
1595877720,-0.0714,-0.9899,-0.0294,-0.3049,-0.0610,-0.1829
1595877720,-0.0721,-0.9903,-0.0290,-0.3049,0.0000,-0.1220
1595877720,-0.0723,-0.9911,-0.0292,-0.2439,0.0610,-0.0610
1595877720,-0.0726,-0.9930,-0.0285,-0.3049,-0.0610,-0.1220
1595877720,-0.0728,-0.9890,-0.0293,-0.2439,-0.0610,-0.1829
1595877720,-0.0695,-0.9905,-0.0291,-0.1220,-0.0610,-0.1220
1595877720,-0.0711,-0.9901,-0.0287,-0.3049,-0.0610,-0.0610
1595877720,-0.0732,-0.9896,-0.0273,-0.2439,-0.1220,-0.0610
1595877720,-0.0721,-0.9883,-0.0291,-0.2439,-0.1220,-0.1220
1595877720,-0.0715,-0.9903,-0.0281,-0.2439,-0.0610,-0.1829
1595877720,-0.0713,-0.9914,-0.0307,-0.3049,-0.0610,-0.1220
1595877720,-0.0712,-0.9914,-0.0272,-0.2439,-0.0610,-0.0610
1595877720,-0.0715,-0.9893,-0.0262,-0.2439,-0.0610,-0.0610
1595877720,-0.0703,-0.9898,-0.0297,-0.3659,-0.0610,-0.0610
1595877720,-0.0717,-0.9910,-0.0288,-0.3049,-0.1220,-0.0610
1595877720,-0.0712,-0.9902,-0.0279,-0.3049,-0.0610,-0.1220
1595877720,-0.0712,-0.9893,-0.0285,-0.2439,-0.0610,-0.0610
1595877720,-0.0720,-0.9916,-0.0295,-0.3659,-0.0610,-0.0610
1595877720,-0.0715,-0.9916,-0.0291,-0.3049,0.0610,-0.1220
1595877720,-0.0725,-0.9907,-0.0264,-0.3049,0.0000,-0.0610
1595877720,-0.0711,-0.9908,-0.0291,-0.3659,0.0000,-0.1220
1595877720,-0.0696,-0.9902,-0.0286,-0.2439,0.0000,-0.0610
1595877720,-0.0734,-0.9886,-0.0284,-0.2439,0.0000,-0.1220
1595877720,-0.0717,-0.9902,-0.0303,-0.3049,-0.0610,-0.1220
1595877720,-0.0721,-0.9904,-0.0286,-0.3659,-0.0610,-0.1220
1595877720,-0.0707,-0.9921,-0.0264,-0.3049,0.0000,-0.1220
1595877720,-0.0717,-0.9905,-0.0278,-0.3049,0.0000,-0.1220
1595877720,-0.0726,-0.9894,-0.0296,-0.2439,-0.0610,-0.0610
1595877720,-0.0718,-0.9915,-0.0300,-0.3049,-0.0610,0.0000
1595877720,-0.0717,-0.9911,-0.0268,-0.2439,-0.0610,-0.0610
1595877720,-0.0702,-0.9911,-0.0294,-0.2439,0.0000,0.0000
1595877720,-0.0712,-0.9902,-0.0287,-0.2439,0.0000,-0.0610
1595877720,-0.0712,-0.9896,-0.0285,-0.2439,0.0610,-0.0610
1595877720,-0.0715,-0.9904,-0.0286,-0.2439,0.0000,0.0000
1595877720,-0.0701,-0.9921,-0.0268,-0.3049,-0.0610,-0.0610
1595877720,-0.0710,-0.9891,-0.0258,-0.3049,-0.0610,-0.0610
1595877720,-0.0730,-0.9899,-0.0261,-0.2439,0.0000,-0.0610
1595877720,-0.0705,-0.9911,-0.0280,-0.3049,-0.0610,-0.0610
1595877720,-0.0713,-0.9894,-0.0303,-0.3659,-0.0610,0.0000
1595877720,-0.0731,-0.9896,-0.0289,-0.3049,-0.0610,-0.0610
1595877720,-0.0704,-0.9916,-0.0283,-0.1829,0.0000,-0.1220
1595877720,-0.0681,-0.9893,-0.0289,-0.1829,-0.0610,-0.0610
1595877720,-0.0683,-0.9886,-0.0284,-0.2439,0.0000,-0.1220
1595877720,-0.0714,-0.9904,-0.0266,-0.2439,-0.0610,-0.1220
1595877720,-0.0723,-0.9908,-0.0261,-0.1829,-0.0610,-0.0610
1595877720,-0.0714,-0.9886,-0.0278,-0.3049,0.0000,0.0000
1595877720,-0.0706,-0.9907,-0.0258,-0.3049,-0.0610,-0.0610
1595877720,-0.0719,-0.9897,-0.0273,-0.3049,-0.0610,-0.1220
1595877720,-0.0717,-0.9882,-0.0287,-0.2439,0.0000,-0.0610
1595877720,-0.0708,-0.9886,-0.0275,-0.3049,-0.0610,-0.0610
1595877720,-0.0723,-0.9887,-0.0279,-0.1829,-0.1220,-0.0610
1595877720,-0.0714,-0.9894,-0.0273,-0.2439,0.0000,-0.0610
1595877720,-0.0719,-0.9893,-0.0265,-0.2439,0.0000,-0.1220
1595877720,-0.0706,-0.9908,-0.0285,-0.2439,0.0000,-0.1829
1595877720,-0.0732,-0.9905,-0.0277,-0.2439,-0.0610,-0.1220
1595877720,-0.0729,-0.9901,-0.0276,-0.3049,0.0000,-0.1220
1595877720,-0.0700,-0.9893,-0.0294,-0.3659,0.0000,-0.0610
1595877720,-0.0693,-0.9897,-0.0260,-0.2439,0.0000,-0.0610
1595877721,-0.0711,-0.9908,-0.0280,-0.2439,0.0000,-0.0610
1595877721,-0.0744,-0.9910,-0.0284,-0.3049,-0.0610,-0.0610
1595877721,-0.0729,-0.9902,-0.0270,-0.3049,0.0000,-0.0610
1595877721,-0.0719,-0.9917,-0.0276,-0.3049,0.0000,-0.1220
1595877721,-0.0729,-0.9897,-0.0275,-0.3049,-0.0610,-0.0610
1595877721,-0.0709,-0.9924,-0.0282,-0.2439,0.0000,-0.1220
1595877721,-0.0703,-0.9902,-0.0275,-0.2439,0.0000,-0.0610
1595877721,-0.0713,-0.9903,-0.0293,-0.2439,-0.0610,-0.1220
1595877721,-0.0726,-0.9906,-0.0279,-0.3049,0.0000,-0.0610
1595877721,-0.0710,-0.9899,-0.0279,-0.3049,-0.0610,-0.0610
1595877721,-0.0724,-0.9891,-0.0269,-0.3049,0.0000,-0.1220
1595877721,-0.0716,-0.9894,-0.0271,-0.1220,-0.0610,-0.0610
1595877721,-0.0694,-0.9904,-0.0292,-0.3049,-0.0610,-0.1220
1595877721,-0.0701,-0.9904,-0.0287,-0.3659,-0.0610,-0.1829
1595877721,-0.0717,-0.9884,-0.0275,-0.3049,0.0000,-0.1220
1595877721,-0.0709,-0.9915,-0.0276,-0.2439,0.0000,-0.0610
1595877721,-0.0728,-0.9909,-0.0278,-0.1829,-0.1220,-0.0610
1595877721,-0.0692,-0.9905,-0.0266,-0.3049,0.0000,-0.0610
1595877721,-0.0722,-0.9904,-0.0282,-0.3049,-0.1220,-0.1220
1595877721,-0.0715,-0.9897,-0.0278,-0.3049,-0.0610,-0.0610
1595877721,-0.0699,-0.9905,-0.0281,-0.3049,0.0610,-0.1829
1595877721,-0.0714,-0.9884,-0.0275,-0.3049,0.0610,-0.1220
1595877721,-0.0722,-0.9896,-0.0261,-0.3659,0.0000,-0.0610
1595877721,-0.0712,-0.9905,-0.0280,-0.3659,0.0000,-0.0610
1595877721,-0.0715,-0.9901,-0.0290,-0.3049,0.0000,-0.0610
1595877721,-0.0719,-0.9891,-0.0266,-0.1829,0.0000,-0.0610
1595877721,-0.0707,-0.9887,-0.0250,-0.3659,-0.0610,-0.0610
1595877721,-0.0705,-0.9900,-0.0273,-0.3049,0.0000,-0.1220
1595877721,-0.0720,-0.9891,-0.0278,-0.3049,0.0000,-0.1220
1595877721,-0.0713,-0.9905,-0.0284,-0.2439,-0.0610,-0.1220
1595877721,-0.0709,-0.9922,-0.0258,-0.3049,-0.1220,-0.1220
1595877721,-0.0717,-0.9910,-0.0251,-0.1829,-0.1220,-0.1220
1595877721,-0.0737,-0.9893,-0.0252,-0.1829,-0.1220,0.0000
1595877721,-0.0713,-0.9899,-0.0273,-0.3049,-0.1220,-0.1220
1595877721,-0.0699,-0.9915,-0.0300,-0.3049,-0.0610,-0.1220
1595877721,-0.0722,-0.9913,-0.0284,-0.2439,-0.0610,-0.1220
1595877721,-0.0731,-0.9917,-0.0282,-0.1829,0.0610,-0.0610
1595877721,-0.0730,-0.9900,-0.0284,-0.1220,0.0000,0.0000
1595877721,-0.0709,-0.9903,-0.0297,-0.2439,0.0000,-0.0610
1595877721,-0.0704,-0.9906,-0.0286,-0.4268,-0.0610,-0.0610
1595877721,-0.0723,-0.9897,-0.0292,-0.3049,-0.0610,-0.0610
1595877721,-0.0723,-0.9926,-0.0303,-0.3049,-0.0610,-0.0610
1595877721,-0.0698,-0.9907,-0.0295,-0.2439,-0.0610,-0.0610
1595877721,-0.0695,-0.9894,-0.0284,-0.3659,0.0000,-0.0610
1595877721,-0.0732,-0.9921,-0.0275,-0.3659,0.0000,-0.1220
1595877721,-0.0715,-0.9907,-0.0286,-0.3049,0.0000,-0.0610
1595877721,-0.0714,-0.9898,-0.0280,-0.3049,-0.0610,-0.0610
1595877721,-0.0711,-0.9912,-0.0287,-0.2439,0.0000,0.0000
1595877721,-0.0720,-0.9899,-0.0258,-0.3049,0.0000,-0.0610
1595877721,-0.0720,-0.9901,-0.0274,-0.1829,0.0000,-0.0610
1595877721,-0.0732,-0.9906,-0.0273,-0.3049,0.0000,0.0000
1595877721,-0.0708,-0.9889,-0.0267,-0.2439,0.0000,-0.0610
1595877721,-0.0704,-0.9893,-0.0266,-0.2439,-0.0610,-0.0610
1595877721,-0.0709,-0.9899,-0.0293,-0.1829,-0.0610,-0.0610
1595877721,-0.0709,-0.9898,-0.0308,-0.2439,0.0000,0.0000
1595877721,-0.0710,-0.9886,-0.0273,-0.3049,0.0610,-0.1220
1595877721,-0.0715,-0.9910,-0.0281,-0.3049,-0.0610,-0.0610
1595877721,-0.0725,-0.9901,-0.0292,-0.2439,0.0000,-0.0610
1595877721,-0.0710,-0.9892,-0.0294,-0.3049,-0.0610,-0.1220
1595877721,-0.0712,-0.9900,-0.0287,-0.3659,0.0000,-0.1220
1595877721,-0.0702,-0.9907,-0.0276,-0.2439,0.0610,0.0000
1595877721,-0.0720,-0.9907,-0.0292,-0.1829,0.0000,-0.0610
1595877721,-0.0716,-0.9904,-0.0272,-0.4268,0.0000,-0.0610
1595877721,-0.0733,-0.9901,-0.0263,-0.3049,0.0000,-0.0610
1595877721,-0.0699,-0.9904,-0.0278,-0.3049,0.0000,-0.0610
1595877721,-0.0707,-0.9910,-0.0287,-0.3049,0.0000,-0.0610
1595877721,-0.0726,-0.9886,-0.0273,-0.1829,0.0000,-0.0610
1595877721,-0.0710,-0.9892,-0.0275,-0.2439,0.0000,-0.0610
1595877721,-0.0707,-0.9885,-0.0281,-0.2439,-0.0610,-0.1220
1595877721,-0.0731,-0.9890,-0.0291,-0.3659,0.0000,-0.1220
1595877721,-0.0712,-0.9897,-0.0281,-0.3049,0.0000,-0.1220
1595877721,-0.0705,-0.9914,-0.0278,-0.3659,0.0000,-0.0610
1595877721,-0.0695,-0.9905,-0.0290,-0.3049,-0.0610,-0.1220
1595877721,-0.0704,-0.9904,-0.0289,-0.2439,0.0000,-0.0610
1595877721,-0.0720,-0.9905,-0.0294,-0.3659,0.0000,-0.0610
1595877721,-0.0710,-0.9898,-0.0286,-0.3659,-0.0610,-0.0610
1595877721,-0.0689,-0.9904,-0.0287,-0.3049,0.0000,-0.0610
1595877721,-0.0726,-0.9896,-0.0295,-0.2439,0.0000,-0.1829
1595877721,-0.0713,-0.9893,-0.0279,-0.3049,0.0610,-0.0610
1595877721,-0.0715,-0.9919,-0.0287,-0.3049,-0.0610,-0.0610
1595877721,-0.0694,-0.9916,-0.0279,-0.2439,0.0000,-0.0610
1595877721,-0.0685,-0.9907,-0.0294,-0.1829,-0.1220,-0.1220
1595877721,-0.0704,-0.9898,-0.0306,-0.3049,-0.0610,-0.0610
1595877721,-0.0696,-0.9886,-0.0259,-0.3049,0.0000,-0.1220
1595877721,-0.0713,-0.9887,-0.0288,-0.3659,-0.0610,-0.1829
1595877721,-0.0724,-0.9896,-0.0293,-0.3049,-0.0610,-0.0610
1595877721,-0.0707,-0.9892,-0.0279,-0.2439,0.0000,-0.0610
1595877721,-0.0706,-0.9901,-0.0295,-0.3049,-0.0610,-0.1220
1595877721,-0.0715,-0.9894,-0.0297,-0.3049,-0.0610,0.0000
1595877721,-0.0727,-0.9923,-0.0278,-0.2439,0.0000,-0.0610
1595877721,-0.0693,-0.9894,-0.0279,-0.3049,-0.0610,-0.0610
1595877721,-0.0701,-0.9899,-0.0294,-0.2439,-0.0610,-0.1220
1595877721,-0.0734,-0.9891,-0.0289,-0.2439,0.0000,-0.1220
1595877721,-0.0717,-0.9880,-0.0278,-0.3049,0.0000,0.0000
1595877721,-0.0720,-0.9893,-0.0290,-0.3049,0.0610,0.0000
1595877721,-0.0717,-0.9916,-0.0276,-0.3049,0.0610,-0.1220
1595877721,-0.0717,-0.9887,-0.0288,-0.3049,0.0610,-0.1220
1595877721,-0.0688,-0.9897,-0.0282,-0.3049,-0.1220,-0.1220
1595877721,-0.0701,-0.9895,-0.0275,-0.3659,0.0000,-0.1220
1595877721,-0.0717,-0.9885,-0.0278,-0.3049,0.0610,-0.1220
1595877721,-0.0705,-0.9915,-0.0275,-0.1829,0.0610,0.0000
1595877721,-0.0697,-0.9890,-0.0264,-0.2439,0.0000,0.0000
1595877722,-0.0717,-0.9878,-0.0266,-0.3049,-0.0610,0.0000
1595877722,-0.0735,-0.9901,-0.0280,-0.3049,0.0000,-0.0610
1595877722,-0.0728,-0.9894,-0.0294,-0.3049,0.0000,-0.0610
1595877722,-0.0726,-0.9897,-0.0271,-0.3049,-0.0610,0.0000
1595877722,-0.0713,-0.9905,-0.0275,-0.2439,0.0000,-0.0610
1595877722,-0.0702,-0.9887,-0.0269,-0.2439,-0.1220,-0.1220
1595877722,-0.0726,-0.9897,-0.0270,-0.3049,-0.0610,0.0000
1595877722,-0.0703,-0.9893,-0.0294,-0.3049,0.0000,0.0000
1595877722,-0.0695,-0.9907,-0.0284,-0.3049,-0.0610,-0.1220
1595877722,-0.0702,-0.9897,-0.0281,-0.3049,-0.1220,-0.1220
1595877722,-0.0723,-0.9901,-0.0300,-0.3049,-0.0610,-0.1220
1595877722,-0.0709,-0.9901,-0.0257,-0.3049,0.0000,-0.0610
1595877722,-0.0726,-0.9915,-0.0274,-0.2439,0.0000,-0.1220
1595877722,-0.0736,-0.9924,-0.0270,-0.2439,0.0000,-0.0610
1595877722,-0.0710,-0.9907,-0.0293,-0.3049,-0.0610,-0.1220
1595877722,-0.0712,-0.9913,-0.0276,-0.3049,-0.0610,-0.0610
1595877722,-0.0699,-0.9899,-0.0264,-0.3049,0.0000,-0.1220
1595877722,-0.0732,-0.9890,-0.0291,-0.3049,0.0000,-0.0610
1595877722,-0.0717,-0.9905,-0.0291,-0.2439,-0.1220,-0.1220
1595877722,-0.0711,-0.9917,-0.0289,-0.3049,-0.0610,-0.1220
1595877722,-0.0703,-0.9892,-0.0264,-0.3659,-0.0610,-0.1220
1595877722,-0.0735,-0.9890,-0.0265,-0.3049,-0.1220,-0.0610
1595877722,-0.0718,-0.9914,-0.0286,-0.3049,0.0610,-0.0610
1595877722,-0.0704,-0.9906,-0.0281,-0.3049,0.0610,-0.0610
1595877722,-0.0717,-0.9893,-0.0288,-0.3049,0.0610,-0.0610
1595877722,-0.0710,-0.9901,-0.0284,-0.3049,0.0000,-0.1220
1595877722,-0.0710,-0.9915,-0.0281,-0.3049,0.0000,-0.1220
1595877722,-0.0724,-0.9896,-0.0278,-0.3049,0.0000,-0.0610
1595877722,-0.0731,-0.9893,-0.0261,-0.3049,0.0000,0.0000
1595877722,-0.0729,-0.9894,-0.0287,-0.2439,-0.0610,-0.0610
1595877722,-0.0697,-0.9902,-0.0269,-0.2439,-0.0610,-0.1220
1595877722,-0.0696,-0.9893,-0.0290,-0.3049,-0.0610,-0.1220
1595877722,-0.0712,-0.9896,-0.0316,-0.2439,-0.0610,-0.1220
1595877722,-0.0699,-0.9910,-0.0283,-0.3049,0.0000,0.0000
1595877722,-0.0734,-0.9896,-0.0297,-0.3659,-0.0610,-0.1220
1595877722,-0.0730,-0.9915,-0.0302,-0.3659,-0.1220,-0.0610
1595877722,-0.0709,-0.9903,-0.0281,-0.3049,-0.0610,-0.0610
1595877722,-0.0712,-0.9897,-0.0277,-0.3049,0.0000,-0.1220
1595877722,-0.0703,-0.9897,-0.0287,-0.3659,0.0000,-0.0610
1595877722,-0.0717,-0.9894,-0.0279,-0.3049,-0.0610,-0.0610
1595877722,-0.0714,-0.9908,-0.0287,-0.3049,-0.1220,-0.1220
1595877722,-0.0710,-0.9899,-0.0277,-0.3659,-0.0610,-0.0610
1595877722,-0.0699,-0.9885,-0.0292,-0.3049,-0.0610,-0.0610
1595877722,-0.0692,-0.9901,-0.0289,-0.3049,-0.0610,-0.1220
1595877722,-0.0719,-0.9908,-0.0255,-0.3049,-0.0610,-0.0610
1595877722,-0.0723,-0.9893,-0.0295,-0.2439,0.0000,-0.0610
1595877722,-0.0712,-0.9897,-0.0265,-0.2439,0.0000,-0.0610
1595877722,-0.0722,-0.9902,-0.0281,-0.3049,-0.1220,-0.0610
1595877722,-0.0721,-0.9901,-0.0283,-0.3049,-0.0610,-0.1220
1595877722,-0.0715,-0.9916,-0.0269,-0.3049,-0.0610,-0.0610
1595877722,-0.0698,-0.9902,-0.0281,-0.3049,-0.0610,0.0000
1595877722,-0.0713,-0.9904,-0.0290,-0.2439,-0.0610,-0.1220
1595877722,-0.0720,-0.9908,-0.0294,-0.1829,0.0000,-0.1220
1595877722,-0.0710,-0.9916,-0.0295,-0.2439,-0.0610,0.0000
1595877722,-0.0726,-0.9898,-0.0276,-0.1829,0.0000,-0.0610
1595877722,-0.0711,-0.9901,-0.0283,-0.3049,0.0000,-0.1220
1595877722,-0.0722,-0.9905,-0.0270,-0.3049,-0.0610,-0.1829
1595877722,-0.0704,-0.9881,-0.0272,-0.3049,-0.0610,-0.1220
1595877722,-0.0715,-0.9883,-0.0270,-0.3049,-0.0610,-0.0610
1595877722,-0.0715,-0.9891,-0.0302,-0.2439,-0.0610,0.0000
1595877722,-0.0715,-0.9882,-0.0292,-0.2439,0.0000,0.0000
1595877722,-0.0704,-0.9891,-0.0261,-0.2439,-0.0610,-0.1220
1595877722,-0.0710,-0.9903,-0.0264,-0.1829,-0.0610,-0.1220
1595877722,-0.0717,-0.9900,-0.0273,-0.2439,0.0000,0.0000
1595877722,-0.0695,-0.9913,-0.0295,-0.3659,0.0000,-0.1220
1595877722,-0.0702,-0.9900,-0.0317,-0.3049,0.0000,-0.1220
1595877722,-0.0701,-0.9911,-0.0269,-0.2439,0.0000,-0.0610
1595877722,-0.0712,-0.9919,-0.0266,-0.3049,0.0000,-0.0610
1595877722,-0.0686,-0.9926,-0.0279,-0.3049,0.0610,-0.0610
1595877722,-0.0688,-0.9903,-0.0272,-0.3049,0.0610,-0.0610
1595877722,-0.0704,-0.9886,-0.0281,-0.3049,0.0000,0.0000
1595877722,-0.0732,-0.9889,-0.0290,-0.2439,-0.0610,-0.0610
1595877722,-0.0707,-0.9903,-0.0301,-0.4268,0.0000,-0.1220
1595877722,-0.0707,-0.9902,-0.0281,-0.3049,-0.0610,-0.1220
1595877722,-0.0710,-0.9910,-0.0262,-0.3659,-0.0610,-0.1220
1595877722,-0.0709,-0.9897,-0.0256,-0.3049,-0.0610,-0.1220
1595877722,-0.0718,-0.9906,-0.0267,-0.3049,-0.0610,-0.0610
1595877722,-0.0702,-0.9907,-0.0278,-0.3049,0.0000,-0.0610
1595877722,-0.0709,-0.9916,-0.0287,-0.3049,-0.1220,-0.0610
1595877722,-0.0707,-0.9905,-0.0281,-0.3049,-0.0610,-0.1220
1595877722,-0.0728,-0.9912,-0.0287,-0.2439,-0.0610,-0.1220
1595877722,-0.0711,-0.9910,-0.0308,-0.3049,0.0000,-0.0610
1595877722,-0.0724,-0.9897,-0.0262,-0.1829,0.0000,-0.0610
1595877722,-0.0711,-0.9890,-0.0256,-0.1220,0.0000,-0.1220
1595877722,-0.0733,-0.9901,-0.0259,-0.3049,0.0000,-0.0610
1595877722,-0.0730,-0.9907,-0.0303,-0.3659,0.0000,0.0610
1595877722,-0.0715,-0.9888,-0.0298,-0.3049,-0.1220,-0.0610
1595877722,-0.0720,-0.9892,-0.0265,-0.3049,-0.1220,-0.1829
1595877722,-0.0706,-0.9898,-0.0283,-0.3659,0.0000,-0.1220
1595877722,-0.0720,-0.9897,-0.0272,-0.3049,0.0000,-0.0610
1595877722,-0.0707,-0.9903,-0.0242,-0.3049,-0.0610,-0.0610
1595877722,-0.0739,-0.9896,-0.0263,-0.2439,-0.0610,-0.0610
1595877722,-0.0722,-0.9891,-0.0292,-0.2439,0.0000,0.0000
1595877722,-0.0706,-0.9907,-0.0290,-0.3049,0.0000,-0.0610
1595877722,-0.0717,-0.9920,-0.0289,-0.2439,0.0000,-0.0610
1595877722,-0.0729,-0.9906,-0.0283,-0.2439,-0.0610,0.0000
1595877722,-0.0712,-0.9900,-0.0285,-0.1829,-0.0610,-0.0610
1595877722,-0.0702,-0.9907,-0.0280,-0.1829,0.0000,-0.0610
1595877722,-0.0702,-0.9897,-0.0302,-0.3049,0.0000,-0.0610
1595877722,-0.0725,-0.9892,-0.0292,-0.2439,-0.0610,-0.0610
1595877722,-0.0724,-0.9908,-0.0273,-0.1829,0.0000,-0.1220
1595877723,-0.0715,-0.9912,-0.0278,-0.2439,0.0000,-0.1220
1595877723,-0.0718,-0.9892,-0.0312,-0.2439,0.0000,-0.0610
1595877723,-0.0710,-0.9902,-0.0292,-0.2439,0.0000,-0.1220
1595877723,-0.0724,-0.9883,-0.0276,-0.3049,0.0610,-0.0610
1595877723,-0.0729,-0.9904,-0.0272,-0.3049,0.0000,0.0000
1595877723,-0.0709,-0.9897,-0.0280,-0.3049,-0.0610,-0.0610
1595877723,-0.0703,-0.9887,-0.0290,-0.3049,-0.1220,-0.1220
1595877723,-0.0714,-0.9911,-0.0287,-0.3049,0.0000,-0.1220
1595877723,-0.0709,-0.9893,-0.0288,-0.3659,-0.0610,-0.1220
1595877723,-0.0736,-0.9885,-0.0282,-0.4268,0.0000,-0.1220
1595877723,-0.0715,-0.9885,-0.0283,-0.2439,0.0000,0.0000
1595877723,-0.0714,-0.9897,-0.0270,-0.3049,0.0000,-0.0610
1595877723,-0.0720,-0.9888,-0.0285,-0.3049,0.0000,-0.0610
1595877723,-0.0713,-0.9890,-0.0306,-0.2439,0.0000,-0.1220
1595877723,-0.0720,-0.9893,-0.0296,-0.2439,0.0000,0.0000
1595877723,-0.0710,-0.9873,-0.0281,-0.2439,0.0000,0.0000
1595877723,-0.0712,-0.9886,-0.0284,-0.3049,-0.0610,-0.0610
1595877723,-0.0728,-0.9890,-0.0269,-0.2439,-0.1220,0.0000
1595877723,-0.0706,-0.9915,-0.0300,-0.2439,-0.0610,-0.0610
1595877723,-0.0717,-0.9903,-0.0283,-0.2439,0.0000,0.0000
1595877723,-0.0721,-0.9902,-0.0278,-0.3659,0.0000,0.0000
1595877723,-0.0737,-0.9903,-0.0283,-0.1829,0.0000,0.0000
1595877723,-0.0714,-0.9894,-0.0273,-0.2439,0.0610,-0.0610
1595877723,-0.0721,-0.9916,-0.0286,-0.2439,0.0610,-0.0610
1595877723,-0.0700,-0.9897,-0.0286,-0.2439,0.1220,-0.0610
1595877723,-0.0699,-0.9893,-0.0291,-0.2439,0.0000,-0.0610
1595877723,-0.0700,-0.9892,-0.0256,-0.2439,0.0000,-0.0610
1595877723,-0.0721,-0.9899,-0.0264,-0.2439,-0.0610,-0.1220
1595877723,-0.0734,-0.9900,-0.0278,-0.1829,-0.0610,-0.1220
1595877723,-0.0716,-0.9913,-0.0278,-0.3049,-0.0610,-0.0610
1595877723,-0.0724,-0.9926,-0.0289,-0.1829,0.0610,0.0000
1595877723,-0.0709,-0.9922,-0.0303,-0.2439,0.0000,0.0000
1595877723,-0.0703,-0.9892,-0.0279,-0.3659,-0.0610,-0.0610
1595877723,-0.0720,-0.9891,-0.0278,-0.3049,-0.0610,-0.1220
1595877723,-0.0719,-0.9894,-0.0289,-0.3049,-0.0610,-0.0610
1595877723,-0.0690,-0.9905,-0.0293,-0.3049,-0.1220,-0.0610
1595877723,-0.0708,-0.9891,-0.0303,-0.2439,-0.0610,-0.0610
1595877723,-0.0717,-0.9894,-0.0299,-0.3049,0.0000,-0.0610
1595877723,-0.0712,-0.9908,-0.0270,-0.3049,-0.0610,-0.1220
1595877723,-0.0720,-0.9895,-0.0267,-0.3049,-0.0610,-0.0610
1595877723,-0.0720,-0.9910,-0.0269,-0.2439,-0.0610,-0.0610
1595877723,-0.0709,-0.9919,-0.0286,-0.2439,-0.0610,-0.0610
1595877723,-0.0699,-0.9908,-0.0305,-0.3049,0.0610,-0.0610
1595877723,-0.0721,-0.9921,-0.0289,-0.3049,0.0000,-0.1220
1595877723,-0.0723,-0.9913,-0.0283,-0.3049,-0.0610,-0.1220
1595877723,-0.0726,-0.9891,-0.0286,-0.1829,0.0610,-0.0610
1595877723,-0.0717,-0.9897,-0.0281,-0.3659,0.1220,0.0000
1595877723,-0.0685,-0.9915,-0.0285,-0.3049,-0.0610,-0.0610
1595877723,-0.0703,-0.9903,-0.0276,-0.3049,0.0000,-0.1220
1595877723,-0.0718,-0.9910,-0.0281,-0.2439,0.0000,0.0000
1595877723,-0.0701,-0.9893,-0.0297,-0.1829,0.0000,0.0000
1595877723,-0.0722,-0.9889,-0.0283,-0.2439,0.0000,-0.0610
1595877723,-0.0708,-0.9910,-0.0275,-0.2439,0.0610,-0.1220
1595877723,-0.0723,-0.9902,-0.0276,-0.3049,0.0610,-0.0610
1595877723,-0.0703,-0.9913,-0.0298,-0.2439,0.1220,-0.0610
1595877723,-0.0706,-0.9911,-0.0291,-0.2439,-0.0610,-0.0610
1595877723,-0.0725,-0.9874,-0.0263,-0.3659,-0.1220,0.0000
1595877723,-0.0721,-0.9891,-0.0278,-0.3049,-0.0610,0.0610
1595877723,-0.0708,-0.9899,-0.0277,-0.2439,-0.1220,-0.1220
1595877723,-0.0715,-0.9889,-0.0283,-0.2439,0.0000,-0.1220
1595877723,-0.0707,-0.9897,-0.0294,-0.3659,-0.0610,0.0000
1595877723,-0.0710,-0.9899,-0.0275,-0.2439,-0.0610,0.0000
1595877723,-0.0726,-0.9901,-0.0286,-0.3659,-0.0610,-0.0610
1595877723,-0.0706,-0.9910,-0.0282,-0.2439,-0.0610,-0.0610
1595877723,-0.0721,-0.9924,-0.0253,-0.1220,-0.1220,-0.1829
1595877723,-0.0700,-0.9911,-0.0286,-0.1829,-0.1220,-0.0610
1595877723,-0.0679,-0.9918,-0.0283,-0.2439,-0.0610,-0.0610
1595877723,-0.0703,-0.9919,-0.0272,-0.2439,-0.0610,-0.0610
1595877723,-0.0696,-0.9904,-0.0283,-0.2439,-0.0610,-0.1220
1595877723,-0.0718,-0.9910,-0.0262,-0.3049,0.0000,-0.1220
1595877723,-0.0720,-0.9910,-0.0275,-0.2439,-0.0610,-0.1220
1595877723,-0.0707,-0.9918,-0.0274,-0.3049,0.0000,-0.1220
1595877723,-0.0717,-0.9902,-0.0263,-0.3049,0.0000,-0.1220
1595877723,-0.0686,-0.9907,-0.0253,-0.2439,-0.1220,-0.1220
1595877723,-0.0701,-0.9911,-0.0266,-0.2439,0.0000,-0.1829
1595877723,-0.0706,-0.9910,-0.0293,-0.3659,-0.0610,-0.1220
1595877723,-0.0704,-0.9896,-0.0292,-0.3049,-0.0610,-0.0610
1595877723,-0.0706,-0.9887,-0.0283,-0.3659,0.0000,0.0000
1595877723,-0.0709,-0.9890,-0.0292,-0.1829,-0.0610,0.0000
1595877723,-0.0709,-0.9897,-0.0269,-0.2439,0.0000,-0.1220
1595877723,-0.0715,-0.9900,-0.0281,-0.3049,0.0000,0.0000
1595877723,-0.0706,-0.9902,-0.0281,-0.2439,-0.0610,-0.0610
1595877723,-0.0709,-0.9900,-0.0285,-0.3049,0.0000,-0.0610
1595877723,-0.0721,-0.9890,-0.0283,-0.2439,0.0000,-0.1220
1595877723,-0.0697,-0.9893,-0.0295,-0.3049,0.0000,-0.1829
1595877723,-0.0691,-0.9897,-0.0311,-0.3049,0.0000,-0.1220
1595877723,-0.0726,-0.9911,-0.0281,-0.3049,0.0000,0.0000
1595877723,-0.0721,-0.9897,-0.0272,-0.3049,0.0000,-0.0610
1595877723,-0.0715,-0.9879,-0.0317,-0.2439,0.0000,-0.0610
1595877723,-0.0717,-0.9891,-0.0281,-0.2439,0.0000,-0.0610
1595877723,-0.0718,-0.9921,-0.0269,-0.3049,0.0000,-0.0610
1595877723,-0.0701,-0.9908,-0.0264,-0.2439,0.0000,-0.0610
1595877723,-0.0717,-0.9888,-0.0284,-0.2439,0.0000,-0.1220
1595877723,-0.0710,-0.9904,-0.0291,-0.3049,0.0000,-0.0610
1595877723,-0.0706,-0.9908,-0.0283,-0.2439,0.0000,-0.0610
1595877723,-0.0680,-0.9923,-0.0280,-0.3049,0.0000,-0.1220
1595877723,-0.0706,-0.9906,-0.0262,-0.3049,-0.0610,-0.1220
1595877723,-0.0728,-0.9914,-0.0278,-0.2439,-0.0610,-0.0610
1595877723,-0.0712,-0.9923,-0.0278,-0.3659,-0.0610,-0.0610
1595877723,-0.0706,-0.9891,-0.0274,-0.3659,0.0000,-0.0610
1595877723,-0.0713,-0.9900,-0.0287,-0.3049,0.0000,-0.1220
1595877723,-0.0701,-0.9915,-0.0275,-0.3049,-0.0610,-0.0610
1595877724,-0.0709,-0.9902,-0.0262,-0.2439,0.0000,0.0000
1595877724,-0.0729,-0.9894,-0.0285,-0.3659,-0.0610,-0.0610
1595877724,-0.0711,-0.9910,-0.0299,-0.3659,-0.0610,-0.0610
1595877724,-0.0699,-0.9909,-0.0302,-0.3659,-0.0610,-0.1220
1595877724,-0.0718,-0.9897,-0.0268,-0.3049,0.1220,-0.1220
1595877724,-0.0717,-0.9902,-0.0280,-0.2439,0.0000,-0.1220
1595877724,-0.0716,-0.9901,-0.0279,-0.3049,0.0000,-0.0610
1595877724,-0.0736,-0.9904,-0.0292,-0.2439,-0.0610,-0.0610
1595877724,-0.0706,-0.9897,-0.0272,-0.3049,-0.0610,-0.0610
1595877724,-0.0725,-0.9894,-0.0273,-0.3659,0.0000,-0.1220
1595877724,-0.0683,-0.9904,-0.0270,-0.2439,0.0000,-0.1220
1595877724,-0.0706,-0.9916,-0.0284,-0.2439,0.0000,-0.0610
1595877724,-0.0706,-0.9908,-0.0271,-0.3049,0.0610,-0.0610
1595877724,-0.0683,-0.9858,-0.0270,-0.2439,-0.0610,-0.0610
1595877724,-0.0701,-0.9910,-0.0256,-0.2439,-0.0610,-0.1220
1595877724,-0.0720,-0.9921,-0.0274,-0.2439,0.0000,-0.1220
1595877724,-0.0735,-0.9902,-0.0294,-0.2439,-0.0610,-0.0610
1595877724,-0.0715,-0.9900,-0.0299,-0.3049,-0.0610,-0.0610
1595877724,-0.0715,-0.9896,-0.0277,-0.2439,0.0000,0.0000
1595877724,-0.0709,-0.9918,-0.0286,-0.4268,-0.0610,-0.0610
1595877724,-0.0704,-0.9907,-0.0280,-0.3659,-0.0610,-0.1220
1595877724,-0.0715,-0.9927,-0.0276,-0.3659,-0.0610,-0.0610
1595877724,-0.0706,-0.9912,-0.0260,-0.2439,0.0000,-0.1220
1595877724,-0.0695,-0.9906,-0.0261,-0.2439,-0.0610,-0.0610
1595877724,-0.0725,-0.9905,-0.0283,-0.2439,0.0000,-0.0610
1595877724,-0.0730,-0.9915,-0.0277,-0.3049,-0.0610,-0.1220
1595877724,-0.0720,-0.9914,-0.0283,-0.2439,-0.0610,-0.1220
1595877724,-0.0714,-0.9906,-0.0266,-0.3049,0.0000,-0.0610
1595877724,-0.0699,-0.9910,-0.0266,-0.3659,-0.0610,-0.0610
1595877724,-0.0710,-0.9904,-0.0281,-0.3659,0.0000,-0.0610
1595877724,-0.0698,-0.9899,-0.0276,-0.3659,0.0000,-0.1220
1595877724,-0.0694,-0.9899,-0.0297,-0.3049,0.0000,0.0000
1595877724,-0.0697,-0.9903,-0.0284,-0.3049,-0.0610,-0.0610
1595877724,-0.0733,-0.9908,-0.0270,-0.3049,-0.0610,-0.1220
1595877724,-0.0732,-0.9897,-0.0263,-0.3049,0.0000,-0.0610
1595877724,-0.0712,-0.9895,-0.0279,-0.3049,-0.0610,-0.1220
1595877724,-0.0706,-0.9895,-0.0270,-0.2439,0.0000,-0.0610
1595877724,-0.0710,-0.9906,-0.0291,-0.1829,-0.0610,0.0000
1595877724,-0.0721,-0.9897,-0.0276,-0.1829,0.0610,-0.0610
1595877724,-0.0730,-0.9900,-0.0258,-0.2439,0.0000,-0.0610
1595877724,-0.0729,-0.9904,-0.0282,-0.2439,-0.0610,-0.0610
1595877724,-0.0712,-0.9912,-0.0287,-0.3659,-0.0610,-0.0610
1595877724,-0.0696,-0.9889,-0.0286,-0.2439,-0.0610,0.0000
1595877724,-0.0709,-0.9893,-0.0287,-0.1829,0.0000,-0.0610
1595877724,-0.0715,-0.9902,-0.0273,-0.3049,0.0610,-0.1220
1595877724,-0.0709,-0.9887,-0.0279,-0.3659,-0.0610,-0.1220
1595877724,-0.0708,-0.9905,-0.0279,-0.3049,-0.0610,-0.0610
1595877724,-0.0721,-0.9899,-0.0280,-0.2439,0.0000,-0.1220
1595877724,-0.0732,-0.9907,-0.0292,-0.2439,0.0610,0.0000
1595877724,-0.0726,-0.9895,-0.0278,-0.2439,-0.0610,-0.0610
1595877724,-0.0706,-0.9905,-0.0278,-0.2439,-0.0610,-0.0610
1595877724,-0.0704,-0.9917,-0.0273,-0.3049,-0.0610,-0.0610
1595877724,-0.0745,-0.9886,-0.0306,-0.3049,0.0000,-0.0610
1595877724,-0.0760,-0.9924,-0.0253,-0.2439,0.0000,0.0610
1595877724,-0.0704,-0.9890,-0.0252,-0.1829,-0.0610,0.1220
1595877724,-0.0675,-0.9812,-0.0290,-0.1829,-0.0610,-0.7317
1595877724,-0.0700,-0.9855,-0.0175,-0.1829,0.0610,-0.4878
1595877724,-0.0841,-0.9963,-0.0305,-0.1220,0.0610,-0.3659
1595877724,-0.0667,-0.9778,-0.0343,-0.3049,0.2439,-2.8659
1595877724,-0.0683,-1.0067,-0.0289,-0.3049,0.0610,-4.5732
1595877724,-0.0629,-0.9887,-0.0295,-0.4878,0.1829,-3.2927
1595877724,-0.0696,-0.9884,-0.0300,-0.4268,0.0000,-2.1951
1595877724,-0.0659,-0.9905,-0.0264,-0.3659,-0.0610,-0.3049
1595877724,-0.0707,-0.9914,-0.0270,-0.1829,-0.1220,0.9146
1595877724,-0.0740,-0.9882,-0.0260,-0.1220,-0.0610,1.0366
1595877724,-0.0660,-0.9911,-0.0228,-0.2439,-0.0610,-0.1220
1595877724,-0.0673,-1.0064,-0.0271,-0.3049,0.1220,-0.9146
1595877724,-0.0625,-0.9885,-0.0302,-0.3659,0.1220,-0.6707
1595877724,-0.0735,-0.9924,-0.0301,-0.3659,-0.0610,0.1220
1595877724,-0.0716,-0.9786,-0.0292,-0.3049,-0.1220,0.7927
1595877724,-0.0773,-1.0150,-0.0388,-0.2439,-0.0610,0.0610
1595877724,-0.0621,-0.9724,-0.0345,-0.5488,0.1220,-1.5854
1595877724,-0.0652,-0.9849,-0.0268,-0.1829,0.0000,-2.0122
1595877724,-0.0749,-1.0168,-0.0260,-0.1829,-0.0610,-0.7317
1595877724,-0.0640,-0.9800,-0.0166,-0.3049,-0.0610,1.0366
1595877724,-0.0762,-1.0047,-0.0189,-0.2439,-0.2439,1.3415
1595877724,-0.0615,-0.9833,-0.0206,-0.5488,0.0610,0.4268
1595877724,-0.0608,-0.9915,-0.0298,-0.4878,0.1829,-1.7073
1595877724,-0.0663,-0.9961,-0.0401,-0.4268,0.2439,-1.9512
1595877724,-0.0698,-0.9818,-0.0377,-0.2439,0.0610,-0.4268
1595877724,-0.0788,-0.9876,-0.0317,-0.1220,-0.1829,1.8293
1595877724,-0.0711,-0.9875,-0.0289,-0.1220,-0.2439,1.8293
1595877724,-0.0663,-1.0027,-0.0268,-0.1829,0.0000,-0.6707
1595877724,-0.0703,-0.9840,-0.0208,-0.4268,0.0610,-0.9146
1595877724,-0.0765,-0.9945,-0.0214,-0.2439,-0.0610,0.5488
1595877724,-0.0723,-0.9902,-0.0302,-0.3659,0.0000,0.0610
1595877724,-0.0602,-0.9888,-0.0294,-0.5488,0.0610,-1.0976
1595877724,-0.0654,-0.9871,-0.0347,-0.4878,0.0610,-1.1585
1595877724,-0.0659,-0.9925,-0.0360,-0.3049,0.0000,-0.1220
1595877724,-0.0715,-0.9924,-0.0312,-0.1829,0.0000,0.3049
1595877724,-0.0737,-0.9818,-0.0222,-0.1220,-0.1220,1.0976
1595877724,-0.0638,-0.9974,-0.0231,-0.1829,-0.0610,0.3659
1595877724,-0.0632,-0.9923,-0.0237,-0.4268,0.0610,-1.4634
1595877724,-0.0750,-0.9928,-0.0230,-0.3659,0.0000,-0.2439
1595877724,-0.0754,-0.9801,-0.0281,-0.3049,-0.1220,1.4634
1595877724,-0.0706,-0.9899,-0.0364,-0.3049,0.0000,0.4878
1595877724,-0.0677,-0.9891,-0.0362,-0.3659,0.0610,-0.9146
1595877724,-0.0693,-0.9912,-0.0291,-0.1829,-0.0610,-0.3049
1595877724,-0.0659,-0.9921,-0.0242,-0.1220,0.0000,0.1829
1595877724,-0.0654,-0.9947,-0.0242,-0.2439,0.1220,-0.7317
1595877724,-0.0668,-0.9942,-0.0206,-0.3049,0.0000,-0.4268
1595877725,-0.0631,-0.9898,-0.0244,-0.2439,-0.1220,0.2439
1595877725,-0.0645,-0.9946,-0.0287,-0.3659,0.0000,-0.2439
1595877725,-0.0704,-0.9882,-0.0342,-0.4268,0.0000,-0.4878
1595877725,-0.0792,-0.9858,-0.0340,-0.2439,-0.0610,0.6707
1595877725,-0.0814,-0.9820,-0.0322,-0.2439,-0.1220,1.4024
1595877725,-0.0762,-0.9916,-0.0327,-0.2439,0.0000,0.2439
1595877725,-0.0660,-0.9922,-0.0251,-0.3049,0.0610,-0.9756
1595877725,-0.0619,-0.9958,-0.0219,-0.2439,0.0610,-0.9146
1595877725,-0.0601,-0.9933,-0.0198,-0.3049,-0.0610,-0.6707
1595877725,-0.0638,-0.9936,-0.0231,-0.3659,-0.0610,-0.6707
1595877725,-0.0657,-0.9926,-0.0286,-0.3659,0.0610,-0.4268
1595877725,-0.0706,-0.9882,-0.0320,-0.2439,0.0610,0.3049
1595877725,-0.0790,-0.9869,-0.0344,-0.2439,0.0000,1.0976
1595877725,-0.0760,-0.9885,-0.0316,-0.1829,-0.1220,0.7927
1595877725,-0.0729,-0.9908,-0.0269,-0.2439,-0.0610,-0.1829
1595877725,-0.0726,-0.9894,-0.0269,-0.2439,0.0000,-0.3659
1595877725,-0.0693,-0.9908,-0.0248,-0.1829,0.0000,-0.2439
1595877725,-0.0627,-0.9909,-0.0239,-0.3049,0.0000,-0.4268
1595877725,-0.0593,-0.9909,-0.0236,-0.3659,0.0000,-0.8537
1595877725,-0.0626,-0.9933,-0.0296,-0.3049,0.0610,-0.7317
1595877725,-0.0645,-0.9918,-0.0334,-0.2439,0.0610,-0.3049
1595877725,-0.0756,-0.9880,-0.0341,-0.2439,-0.0610,0.6098
1595877725,-0.0775,-0.9886,-0.0316,-0.1220,-0.1220,1.4024
1595877725,-0.0695,-0.9924,-0.0278,-0.1829,-0.0610,0.3049
1595877725,-0.0674,-0.9927,-0.0248,-0.4268,0.0000,-0.9146
1595877725,-0.0660,-0.9910,-0.0262,-0.3659,0.0000,-0.4878
1595877725,-0.0670,-0.9888,-0.0256,-0.2439,-0.0610,0.0610
1595877725,-0.0662,-0.9927,-0.0284,-0.2439,0.0000,-0.1220
1595877725,-0.0671,-0.9904,-0.0300,-0.3049,0.0000,-0.3659
1595877725,-0.0726,-0.9896,-0.0303,-0.3659,-0.1220,-0.0610
1595877725,-0.0681,-0.9885,-0.0308,-0.2439,-0.0610,0.2439
1595877725,-0.0631,-0.9926,-0.0275,-0.3049,0.0000,-0.3049
1595877725,-0.0673,-0.9916,-0.0250,-0.3659,-0.0610,-0.5488
1595877725,-0.0674,-0.9898,-0.0234,-0.2439,-0.0610,0.0000
1595877725,-0.0698,-0.9895,-0.0237,-0.3049,0.0000,0.2439
1595877725,-0.0709,-0.9895,-0.0271,-0.3049,0.0000,-0.1829
1595877725,-0.0723,-0.9908,-0.0292,-0.3049,0.1220,-0.0610
1595877725,-0.0737,-0.9890,-0.0329,-0.3049,0.0000,0.4268
1595877725,-0.0694,-0.9911,-0.0330,-0.2439,0.0000,0.0610
1595877725,-0.0671,-0.9903,-0.0317,-0.3049,0.0000,-0.6098
1595877725,-0.0684,-0.9902,-0.0282,-0.3049,-0.0610,-0.2439
1595877725,-0.0657,-0.9928,-0.0230,-0.3049,-0.1220,-0.0610
1595877725,-0.0596,-0.9951,-0.0258,-0.4268,0.0000,-0.5488
1595877725,-0.0668,-0.9925,-0.0244,-0.3049,0.0610,-0.4878
1595877725,-0.0720,-0.9892,-0.0289,-0.2439,0.0000,0.4268
1595877725,-0.0726,-0.9888,-0.0325,-0.2439,-0.0610,0.5488
1595877725,-0.0724,-0.9910,-0.0336,-0.2439,0.0000,-0.0610
1595877725,-0.0751,-0.9882,-0.0295,-0.3659,-0.0610,0.0610
1595877725,-0.0698,-0.9907,-0.0298,-0.3049,-0.1220,0.1829
1595877725,-0.0614,-0.9933,-0.0251,-0.3049,-0.0610,-0.7317
1595877725,-0.0616,-0.9937,-0.0248,-0.3049,0.0000,-0.9146
1595877725,-0.0689,-0.9911,-0.0245,-0.2439,0.0610,0.0000
1595877725,-0.0675,-0.9904,-0.0238,-0.2439,-0.0610,0.2439
1595877725,-0.0662,-0.9934,-0.0276,-0.2439,0.0000,-0.3049
1595877725,-0.0730,-0.9891,-0.0297,-0.3049,0.0610,0.1829
1595877725,-0.0742,-0.9883,-0.0297,-0.1220,-0.0610,0.7927
1595877725,-0.0674,-0.9919,-0.0314,-0.3049,0.0000,-0.1829
1595877725,-0.0704,-0.9906,-0.0308,-0.3049,0.0610,-0.6707
1595877725,-0.0716,-0.9902,-0.0259,-0.2439,0.0000,0.2439
1595877725,-0.0645,-0.9922,-0.0234,-0.2439,-0.0610,0.1220
1595877725,-0.0623,-0.9944,-0.0269,-0.2439,0.0000,-0.9146
1595877725,-0.0676,-0.9901,-0.0270,-0.2439,0.0000,-0.4268
1595877725,-0.0694,-0.9886,-0.0286,-0.2439,-0.0610,0.7317
1595877725,-0.0651,-0.9938,-0.0303,-0.3049,0.0610,0.0000
1595877725,-0.0691,-0.9904,-0.0297,-0.3659,-0.0610,-0.5488
1595877725,-0.0748,-0.9852,-0.0282,-0.1829,-0.0610,0.4878
1595877725,-0.0688,-0.9917,-0.0258,-0.1829,-0.0610,0.4268
1595877725,-0.0628,-0.9948,-0.0266,-0.3659,0.0610,-1.0366
1595877725,-0.0705,-0.9908,-0.0274,-0.3049,0.0000,-0.4878
1595877725,-0.0742,-0.9882,-0.0261,-0.2439,-0.0610,0.8537
1595877725,-0.0664,-0.9939,-0.0311,-0.2439,-0.1220,0.0610
1595877725,-0.0696,-0.9919,-0.0294,-0.3659,0.0000,-0.7927
1595877725,-0.0733,-0.9871,-0.0293,-0.2439,0.0000,0.3049
1595877725,-0.0657,-0.9902,-0.0294,-0.1829,-0.0610,0.4878
1595877725,-0.0624,-0.9938,-0.0289,-0.4268,-0.0610,-1.0366
1595877725,-0.0681,-0.9926,-0.0280,-0.3049,0.0000,-0.5488
1595877725,-0.0704,-0.9886,-0.0221,-0.2439,-0.0610,0.6707
1595877725,-0.0676,-0.9922,-0.0273,-0.2439,-0.0610,0.4268
1595877725,-0.0666,-0.9929,-0.0272,-0.3049,0.0000,-0.6707
1595877725,-0.0737,-0.9877,-0.0292,-0.1829,0.0610,-0.0610
1595877725,-0.0703,-0.9884,-0.0307,-0.2439,0.0000,0.6707
1595877725,-0.0666,-0.9917,-0.0311,-0.3659,0.0000,-0.3659
1595877725,-0.0704,-0.9903,-0.0277,-0.3659,0.0610,-0.6098
1595877725,-0.0701,-0.9863,-0.0242,-0.2439,0.0000,0.4268
1595877725,-0.0626,-0.9943,-0.0247,-0.1829,0.0000,-0.1220
1595877725,-0.0638,-0.9981,-0.0268,-0.3049,0.0610,-1.0976
1595877725,-0.0720,-0.9877,-0.0268,-0.1829,0.0000,-0.0610
1595877725,-0.0736,-0.9890,-0.0280,-0.1220,-0.0610,0.9146
1595877725,-0.0692,-0.9941,-0.0301,-0.1829,-0.0610,0.0610
1595877725,-0.0694,-0.9895,-0.0312,-0.3659,-0.0610,-0.5488
1595877725,-0.0745,-0.9854,-0.0291,-0.2439,-0.0610,0.3659
1595877725,-0.0637,-0.9919,-0.0278,-0.1829,0.0000,0.2439
1595877725,-0.0638,-0.9937,-0.0269,-0.3659,0.0610,-0.9756
1595877725,-0.0709,-0.9896,-0.0229,-0.3049,0.0610,-0.3049
1595877725,-0.0699,-0.9902,-0.0226,-0.1220,-0.1829,0.7927
1595877725,-0.0612,-0.9958,-0.0255,-0.2439,-0.0610,-0.2439
1595877725,-0.0691,-0.9930,-0.0276,-0.3049,0.0000,-0.6707
1595877725,-0.0756,-0.9859,-0.0280,-0.1829,0.0610,0.5488
1595877725,-0.0680,-0.9887,-0.0298,-0.2439,0.0000,0.4878
1595877725,-0.0628,-0.9943,-0.0303,-0.3659,0.0000,-0.8537
1595877725,-0.0717,-0.9875,-0.0280,-0.1829,0.0000,-0.2439
1595877726,-0.0709,-0.9874,-0.0249,-0.1829,-0.0610,0.9146
1595877726,-0.0640,-0.9934,-0.0287,-0.2439,0.0000,-0.2439
1595877726,-0.0693,-0.9929,-0.0300,-0.3049,0.0610,-0.9756
1595877726,-0.0724,-0.9872,-0.0269,-0.2439,-0.0610,0.4268
1595877726,-0.0664,-0.9877,-0.0261,-0.2439,0.0000,0.6098
1595877726,-0.0649,-0.9944,-0.0283,-0.3659,-0.0610,-0.6707
1595877726,-0.0722,-0.9865,-0.0282,-0.3659,-0.0610,-0.3049
1595877726,-0.0713,-0.9880,-0.0275,-0.1220,-0.0610,0.7927
1595877726,-0.0626,-0.9949,-0.0297,-0.2439,0.0000,-0.3049
1595877726,-0.0666,-0.9933,-0.0273,-0.3659,0.0000,-1.0366
1595877726,-0.0729,-0.9883,-0.0269,-0.2439,-0.0610,0.3049
1595877726,-0.0693,-0.9879,-0.0281,-0.2439,-0.1220,0.7927
1595877726,-0.0666,-0.9926,-0.0300,-0.2439,-0.0610,-0.3049
1595877726,-0.0709,-0.9899,-0.0305,-0.3659,0.0610,-0.5488
1595877726,-0.0728,-0.9872,-0.0270,-0.3659,-0.0610,0.4268
1595877726,-0.0648,-0.9922,-0.0277,-0.3049,0.0000,-0.1220
1595877726,-0.0662,-0.9926,-0.0253,-0.3659,0.0610,-0.7927
1595877726,-0.0724,-0.9871,-0.0255,-0.3659,0.0000,0.1220
1595877726,-0.0679,-0.9910,-0.0252,-0.1829,0.0000,0.6707
1595877726,-0.0627,-0.9951,-0.0296,-0.3659,0.0000,-0.5488
1595877726,-0.0695,-0.9900,-0.0305,-0.3049,0.0000,-0.6098
1595877726,-0.0730,-0.9867,-0.0301,-0.2439,0.0610,0.6098
1595877726,-0.0653,-0.9863,-0.0307,-0.3659,-0.0610,0.2439
1595877726,-0.0682,-0.9896,-0.0299,-0.4268,0.0000,-0.6707
1595877726,-0.0736,-0.9885,-0.0281,-0.2439,-0.0610,0.0000
1595877726,-0.0677,-0.9909,-0.0256,-0.2439,0.0000,0.4268
1595877726,-0.0632,-0.9943,-0.0232,-0.3049,0.0610,-0.5488
1595877726,-0.0669,-0.9929,-0.0244,-0.2439,0.0000,-0.6098
1595877726,-0.0721,-0.9886,-0.0262,-0.1220,0.0000,0.4878
1595877726,-0.0684,-0.9904,-0.0294,-0.1829,0.0000,0.3049
1595877726,-0.0663,-0.9906,-0.0300,-0.3659,-0.0610,-0.6098
1595877726,-0.0726,-0.9865,-0.0302,-0.3049,0.0000,0.0000
1595877726,-0.0687,-0.9883,-0.0274,-0.1829,-0.1220,0.4878
1595877726,-0.0648,-0.9937,-0.0291,-0.2439,0.0000,-0.3659
1595877726,-0.0701,-0.9925,-0.0296,-0.2439,0.0000,-0.6098
1595877726,-0.0732,-0.9904,-0.0263,-0.2439,-0.0610,0.3659
1595877726,-0.0663,-0.9922,-0.0261,-0.2439,-0.0610,0.1829
1595877726,-0.0670,-0.9933,-0.0301,-0.3049,0.0000,-0.6098
1595877726,-0.0714,-0.9877,-0.0300,-0.2439,0.0000,-0.1220
1595877726,-0.0693,-0.9895,-0.0278,-0.2439,0.0000,0.4268
1595877726,-0.0659,-0.9913,-0.0283,-0.2439,0.0000,-0.3049
1595877726,-0.0689,-0.9921,-0.0273,-0.2439,-0.0610,-0.4878
1595877726,-0.0739,-0.9894,-0.0303,-0.3049,-0.0610,0.3049
1595877726,-0.0693,-0.9915,-0.0268,-0.3049,-0.0610,0.2439
1595877726,-0.0665,-0.9923,-0.0295,-0.3659,0.0000,-0.4878
1595877726,-0.0710,-0.9904,-0.0283,-0.3659,0.0610,-0.2439
1595877726,-0.0717,-0.9890,-0.0280,-0.2439,0.0000,0.3049
1595877726,-0.0659,-0.9909,-0.0291,-0.3049,-0.0610,-0.1829
1595877726,-0.0665,-0.9913,-0.0286,-0.2439,0.0000,-0.4268
1595877726,-0.0680,-0.9886,-0.0263,-0.2439,-0.0610,0.1220
1595877726,-0.0660,-0.9927,-0.0281,-0.1829,-0.0610,0.1220
1595877726,-0.0654,-0.9944,-0.0267,-0.3049,0.0000,-0.4268
1595877726,-0.0712,-0.9890,-0.0284,-0.3049,0.0000,-0.2439
1595877726,-0.0720,-0.9901,-0.0278,-0.3049,0.0000,0.3049
1595877726,-0.0710,-0.9919,-0.0302,-0.3049,0.0000,0.1220
1595877726,-0.0702,-0.9913,-0.0305,-0.3049,0.0000,-0.1220
1595877726,-0.0707,-0.9891,-0.0298,-0.2439,0.0000,0.0610
1595877726,-0.0706,-0.9913,-0.0294,-0.3049,0.0000,0.1220
1595877726,-0.0667,-0.9922,-0.0272,-0.3049,0.0000,-0.1829
1595877726,-0.0684,-0.9908,-0.0268,-0.2439,0.0610,-0.1829
1595877726,-0.0685,-0.9900,-0.0267,-0.3049,0.0000,0.0610
1595877726,-0.0672,-0.9893,-0.0287,-0.3049,-0.0610,-0.1220
1595877726,-0.0676,-0.9918,-0.0287,-0.3049,-0.0610,-0.2439
1595877726,-0.0690,-0.9887,-0.0286,-0.3049,-0.0610,-0.1220
1595877726,-0.0715,-0.9893,-0.0295,-0.2439,0.0000,0.1220
1595877726,-0.0709,-0.9906,-0.0270,-0.3049,-0.0610,0.0610
1595877726,-0.0731,-0.9887,-0.0278,-0.3049,0.0000,-0.1829
1595877726,-0.0704,-0.9908,-0.0276,-0.2439,-0.0610,-0.1220
1595877726,-0.0694,-0.9894,-0.0266,-0.3049,0.0610,-0.1220
1595877726,-0.0679,-0.9918,-0.0268,-0.3049,0.0000,-0.1829
1595877726,-0.0684,-0.9932,-0.0286,-0.1829,0.0000,-0.1829
1595877726,-0.0690,-0.9903,-0.0260,-0.2439,0.0000,0.0000
1595877726,-0.0676,-0.9903,-0.0284,-0.2439,0.0610,0.0610
1595877726,-0.0675,-0.9911,-0.0314,-0.3049,-0.0610,-0.1220
1595877726,-0.0699,-0.9925,-0.0264,-0.1829,-0.0610,-0.1829
1595877726,-0.0705,-0.9896,-0.0268,-0.2439,0.0000,0.0610
1595877726,-0.0695,-0.9901,-0.0298,-0.2439,-0.0610,0.0000
1595877726,-0.0678,-0.9926,-0.0280,-0.2439,-0.0610,-0.3049
1595877726,-0.0710,-0.9899,-0.0273,-0.1220,-0.1220,-0.1829
1595877726,-0.0674,-0.9890,-0.0272,-0.2439,0.0000,0.0610
1595877726,-0.0667,-0.9916,-0.0272,-0.3049,0.0610,-0.1220
1595877726,-0.0679,-0.9915,-0.0269,-0.3049,0.1220,-0.3659
1595877726,-0.0696,-0.9880,-0.0281,-0.2439,0.0000,-0.1220
1595877726,-0.0674,-0.9880,-0.0280,-0.2439,-0.0610,0.1220
1595877726,-0.0662,-0.9911,-0.0271,-0.2439,0.0000,-0.1829
1595877726,-0.0696,-0.9926,-0.0290,-0.3049,0.0610,-0.2439
1595877726,-0.0722,-0.9905,-0.0256,-0.3049,-0.0610,0.1220
1595877726,-0.0678,-0.9912,-0.0250,-0.3049,0.0610,0.0610
1595877726,-0.0671,-0.9920,-0.0289,-0.3659,-0.0610,-0.3659
1595877726,-0.0708,-0.9898,-0.0300,-0.1829,-0.0610,-0.0610
1595877726,-0.0706,-0.9888,-0.0280,-0.1829,-0.0610,0.3049
1595877726,-0.0657,-0.9922,-0.0286,-0.2439,-0.0610,-0.1829
1595877726,-0.0674,-0.9926,-0.0289,-0.2439,-0.0610,-0.4878
1595877726,-0.0686,-0.9888,-0.0266,-0.3659,-0.0610,0.0610
1595877726,-0.0643,-0.9912,-0.0286,-0.2439,-0.0610,0.1220
1595877726,-0.0665,-0.9916,-0.0286,-0.2439,-0.0610,-0.3659
1595877726,-0.0707,-0.9893,-0.0275,-0.3049,0.0000,0.0000
1595877726,-0.0707,-0.9885,-0.0298,-0.3049,-0.0610,0.4268
1595877726,-0.0692,-0.9921,-0.0305,-0.3049,0.0610,-0.1220
1595877726,-0.0692,-0.9902,-0.0280,-0.3049,0.0000,-0.4878
1595877726,-0.0715,-0.9891,-0.0262,-0.3049,0.0000,0.1220
1595877726,-0.0684,-0.9908,-0.0276,-0.3049,0.0000,0.2439
1595877727,-0.0668,-0.9938,-0.0267,-0.3659,0.0000,-0.5488
1595877727,-0.0690,-0.9899,-0.0275,-0.3049,0.0610,-0.4268
1595877727,-0.0686,-0.9888,-0.0265,-0.2439,0.0610,0.3049
1595877727,-0.0671,-0.9917,-0.0309,-0.3049,-0.0610,0.0610
1595877727,-0.0683,-0.9912,-0.0304,-0.4268,-0.0610,-0.3659
1595877727,-0.0751,-0.9904,-0.0286,-0.3049,-0.0610,0.1829
1595877727,-0.0712,-0.9897,-0.0285,-0.2439,-0.1220,0.4268
1595877727,-0.0673,-0.9935,-0.0285,-0.1829,0.0000,-0.4878
1595877727,-0.0703,-0.9907,-0.0273,-0.2439,0.0000,-0.4878
1595877727,-0.0712,-0.9884,-0.0292,-0.3049,-0.0610,0.2439
1595877727,-0.0666,-0.9925,-0.0258,-0.3049,0.0000,0.0000
1595877727,-0.0663,-0.9930,-0.0283,-0.3049,0.0000,-0.5488
1595877727,-0.0702,-0.9894,-0.0284,-0.3049,0.0000,-0.0610
1595877727,-0.0685,-0.9887,-0.0292,-0.1829,0.0000,0.4268
1595877727,-0.0665,-0.9916,-0.0276,-0.3049,0.0610,-0.2439
1595877727,-0.0702,-0.9919,-0.0265,-0.3659,-0.0610,-0.4268
1595877727,-0.0703,-0.9891,-0.0288,-0.2439,0.0000,0.3049
1595877727,-0.0688,-0.9902,-0.0256,-0.2439,0.0000,0.2439
1595877727,-0.0679,-0.9926,-0.0264,-0.3659,0.0610,-0.5488
1595877727,-0.0721,-0.9893,-0.0288,-0.3659,0.0610,-0.1220
1595877727,-0.0708,-0.9884,-0.0297,-0.2439,0.0000,0.3659
1595877727,-0.0652,-0.9904,-0.0284,-0.3659,0.0000,-0.3049
1595877727,-0.0679,-0.9915,-0.0284,-0.4268,-0.0610,-0.6098
1595877727,-0.0687,-0.9891,-0.0286,-0.2439,0.0610,0.2439
1595877727,-0.0671,-0.9915,-0.0284,-0.2439,-0.0610,0.3049
1595877727,-0.0656,-0.9911,-0.0279,-0.3049,-0.0610,-0.4268
1595877727,-0.0701,-0.9911,-0.0295,-0.3049,-0.0610,-0.2439
1595877727,-0.0727,-0.9911,-0.0287,-0.3049,0.0000,0.3659
1595877727,-0.0676,-0.9933,-0.0292,-0.2439,0.0000,-0.0610
1595877727,-0.0688,-0.9917,-0.0284,-0.2439,0.0610,-0.5488
1595877727,-0.0725,-0.9886,-0.0302,-0.2439,-0.0610,0.1829
1595877727,-0.0685,-0.9909,-0.0297,-0.2439,0.0610,0.2439
1595877727,-0.0665,-0.9930,-0.0270,-0.2439,0.1220,-0.5488
1595877727,-0.0695,-0.9918,-0.0291,-0.3049,0.0000,-0.4268
1595877727,-0.0707,-0.9885,-0.0278,-0.2439,-0.0610,0.3049
1595877727,-0.0678,-0.9928,-0.0269,-0.3049,0.0000,0.0610
1595877727,-0.0689,-0.9902,-0.0287,-0.3659,0.0000,-0.4878
1595877727,-0.0728,-0.9876,-0.0274,-0.2439,-0.0610,0.1829
1595877727,-0.0710,-0.9913,-0.0284,-0.2439,0.0000,0.4878
1595877727,-0.0663,-0.9932,-0.0269,-0.3049,0.0000,-0.3659
1595877727,-0.0700,-0.9903,-0.0260,-0.3049,-0.0610,-0.4268
1595877727,-0.0712,-0.9888,-0.0280,-0.2439,-0.0610,0.3049
1595877727,-0.0655,-0.9928,-0.0277,-0.2439,0.0000,0.1220
1595877727,-0.0652,-0.9926,-0.0292,-0.3659,0.0000,-0.6098
1595877727,-0.0707,-0.9901,-0.0280,-0.2439,0.0000,-0.1220
1595877727,-0.0701,-0.9894,-0.0272,-0.2439,-0.0610,0.4268
1595877727,-0.0665,-0.9915,-0.0268,-0.2439,0.0000,-0.1829
1595877727,-0.0721,-0.9907,-0.0294,-0.3659,-0.0610,-0.3659
1595877727,-0.0736,-0.9876,-0.0291,-0.3049,0.0610,0.3049
1595877727,-0.0683,-0.9899,-0.0280,-0.1829,0.0000,0.1829
1595877727,-0.0668,-0.9919,-0.0287,-0.3049,0.0610,-0.5488
1595877727,-0.0703,-0.9896,-0.0282,-0.3049,0.0000,-0.2439
1595877727,-0.0704,-0.9904,-0.0276,-0.2439,0.0000,0.4268
1595877727,-0.0667,-0.9906,-0.0283,-0.2439,-0.0610,-0.1829
1595877727,-0.0684,-0.9913,-0.0288,-0.3049,0.0000,-0.5488
1595877727,-0.0729,-0.9915,-0.0275,-0.2439,0.0000,0.1220
1595877727,-0.0681,-0.9912,-0.0292,-0.2439,-0.0610,0.2439
1595877727,-0.0659,-0.9932,-0.0305,-0.3049,0.0000,-0.3659
1595877727,-0.0724,-0.9890,-0.0283,-0.3659,0.0000,-0.1829
1595877727,-0.0707,-0.9891,-0.0276,-0.2439,-0.0610,0.3659
1595877727,-0.0682,-0.9911,-0.0281,-0.2439,0.0000,-0.1220
1595877727,-0.0676,-0.9902,-0.0284,-0.3049,0.0000,-0.4268
1595877727,-0.0695,-0.9904,-0.0281,-0.2439,-0.0610,0.0610
1595877727,-0.0677,-0.9882,-0.0278,-0.3049,-0.0610,0.1829
1595877727,-0.0652,-0.9930,-0.0272,-0.4268,0.0610,-0.4268
1595877727,-0.0692,-0.9911,-0.0282,-0.3049,0.0610,-0.2439
1595877727,-0.0692,-0.9899,-0.0257,-0.2439,0.0000,0.3049
1595877727,-0.0660,-0.9907,-0.0259,-0.2439,-0.0610,-0.0610
1595877727,-0.0678,-0.9924,-0.0273,-0.3049,0.0000,-0.4878
1595877727,-0.0718,-0.9886,-0.0294,-0.2439,-0.0610,0.0000
1595877727,-0.0700,-0.9891,-0.0291,-0.2439,-0.0610,0.2439
1595877727,-0.0667,-0.9911,-0.0289,-0.4268,-0.0610,-0.2439
1595877727,-0.0693,-0.9904,-0.0287,-0.3049,0.0000,-0.3049
1595877727,-0.0692,-0.9896,-0.0286,-0.1829,0.0610,0.1829
1595877727,-0.0676,-0.9920,-0.0276,-0.1829,-0.0610,-0.0610
1595877727,-0.0687,-0.9925,-0.0287,-0.3049,0.0000,-0.4268
1595877727,-0.0706,-0.9901,-0.0281,-0.3049,0.0000,0.0000
1595877727,-0.0700,-0.9894,-0.0284,-0.2439,0.0000,0.1829
1595877727,-0.0676,-0.9929,-0.0273,-0.3049,-0.0610,-0.2439
1595877727,-0.0688,-0.9910,-0.0283,-0.2439,0.0000,-0.2439
1595877727,-0.0715,-0.9884,-0.0283,-0.3049,0.0610,0.1220
1595877727,-0.0668,-0.9915,-0.0266,-0.3049,0.0000,0.0610
1595877727,-0.0669,-0.9922,-0.0302,-0.3049,0.0610,-0.3049
1595877727,-0.0710,-0.9904,-0.0286,-0.2439,-0.0610,-0.1829
1595877727,-0.0696,-0.9903,-0.0273,-0.1829,0.0000,0.1220
1595877727,-0.0668,-0.9930,-0.0260,-0.3659,-0.0610,-0.0610
1595877727,-0.0692,-0.9918,-0.0273,-0.3049,0.0000,-0.3659
1595877727,-0.0721,-0.9896,-0.0273,-0.1829,0.0000,0.0610
1595877727,-0.0679,-0.9900,-0.0287,-0.3049,0.0000,0.1220
1595877727,-0.0672,-0.9906,-0.0313,-0.3659,-0.0610,-0.1829
1595877727,-0.0698,-0.9909,-0.0272,-0.2439,0.0000,-0.1829
1595877727,-0.0695,-0.9908,-0.0289,-0.3049,0.0000,0.0610
1595877727,-0.0668,-0.9897,-0.0273,-0.2439,0.0000,-0.0610
1595877727,-0.0679,-0.9912,-0.0273,-0.2439,0.0000,-0.3049
1595877727,-0.0677,-0.9911,-0.0276,-0.3049,0.0000,-0.0610
1595877727,-0.0712,-0.9898,-0.0274,-0.2439,-0.0610,0.1220
1595877727,-0.0690,-0.9905,-0.0286,-0.1220,-0.0610,-0.1220
1595877727,-0.0698,-0.9925,-0.0278,-0.2439,-0.0610,-0.1220
1595877727,-0.0698,-0.9919,-0.0284,-0.3049,-0.1220,0.0000
1595877727,-0.0672,-0.9933,-0.0280,-0.2439,0.0000,-0.0610
1595877727,-0.0673,-0.9921,-0.0300,-0.3659,0.1220,-0.2439
1595877728,-0.0698,-0.9890,-0.0288,-0.3049,-0.0610,-0.0610
1595877728,-0.0711,-0.9892,-0.0279,-0.2439,-0.0610,0.1220
1595877728,-0.0692,-0.9916,-0.0283,-0.2439,0.0000,-0.1220
1595877728,-0.0680,-0.9894,-0.0290,-0.3049,0.0000,-0.2439
1595877728,-0.0683,-0.9911,-0.0295,-0.3049,-0.0610,0.0610
1595877728,-0.0701,-0.9914,-0.0273,-0.3049,0.0000,0.0610
1595877728,-0.0692,-0.9907,-0.0272,-0.3659,0.0000,-0.2439
1595877728,-0.0691,-0.9906,-0.0273,-0.3049,0.0610,-0.1220
1595877728,-0.0686,-0.9931,-0.0282,-0.2439,0.0000,0.0000
1595877728,-0.0687,-0.9915,-0.0267,-0.3659,-0.0610,0.0000
1595877728,-0.0693,-0.9910,-0.0266,-0.3049,0.0000,-0.1220
1595877728,-0.0681,-0.9916,-0.0276,-0.2439,0.0610,-0.1220
1595877728,-0.0692,-0.9924,-0.0276,-0.3049,-0.0610,0.0610
1595877728,-0.0685,-0.9932,-0.0293,-0.3049,0.0000,-0.0610
1595877728,-0.0677,-0.9911,-0.0312,-0.2439,0.0000,-0.1829
1595877728,-0.0682,-0.9908,-0.0289,-0.3659,-0.1220,-0.0610
1595877728,-0.0686,-0.9912,-0.0261,-0.2439,0.0000,0.0610
1595877728,-0.0684,-0.9920,-0.0247,-0.2439,-0.0610,-0.1220
1595877728,-0.0710,-0.9918,-0.0273,-0.3049,0.0610,-0.1829
1595877728,-0.0682,-0.9905,-0.0276,-0.3049,0.0000,0.0000
1595877728,-0.0665,-0.9903,-0.0298,-0.3049,-0.0610,-0.0610
1595877728,-0.0674,-0.9897,-0.0280,-0.2439,0.0000,-0.3659
1595877728,-0.0694,-0.9899,-0.0281,-0.1829,0.0610,-0.1220
1595877728,-0.0681,-0.9906,-0.0296,-0.2439,0.0000,0.0610
1595877728,-0.0671,-0.9921,-0.0298,-0.2439,0.0000,0.0000
1595877728,-0.0699,-0.9905,-0.0277,-0.3049,0.0000,-0.1220
1595877728,-0.0701,-0.9905,-0.0278,-0.2439,-0.0610,0.0610
1595877728,-0.0684,-0.9899,-0.0272,-0.2439,0.0000,0.0000
1595877728,-0.0668,-0.9905,-0.0297,-0.3659,0.0000,-0.3049
1595877728,-0.0688,-0.9907,-0.0273,-0.3049,-0.1220,-0.1829
1595877728,-0.0690,-0.9885,-0.0301,-0.2439,-0.0610,0.0610
1595877728,-0.0671,-0.9920,-0.0280,-0.3659,0.0000,-0.1220
1595877728,-0.0674,-0.9921,-0.0264,-0.3049,0.0000,-0.3049
1595877728,-0.0699,-0.9896,-0.0270,-0.2439,-0.0610,-0.0610
1595877728,-0.0681,-0.9911,-0.0280,-0.2439,-0.0610,0.0000
1595877728,-0.0672,-0.9922,-0.0284,-0.2439,-0.0610,-0.1829
1595877728,-0.0706,-0.9907,-0.0290,-0.3659,0.0000,-0.1220
1595877728,-0.0701,-0.9904,-0.0262,-0.3049,-0.0610,0.1220
1595877728,-0.0698,-0.9917,-0.0292,-0.3049,0.0000,0.0000
1595877728,-0.0694,-0.9912,-0.0276,-0.3049,0.0610,-0.3049
1595877728,-0.0694,-0.9885,-0.0281,-0.3659,-0.0610,-0.0610
1595877728,-0.0685,-0.9919,-0.0287,-0.3049,-0.0610,0.1829
1595877728,-0.0670,-0.9915,-0.0286,-0.2439,-0.0610,-0.1220
1595877728,-0.0685,-0.9921,-0.0256,-0.3049,-0.0610,-0.3049
1595877728,-0.0731,-0.9903,-0.0292,-0.2439,0.0000,0.0610
1595877728,-0.0700,-0.9911,-0.0294,-0.2439,0.0000,0.0610
1595877728,-0.0696,-0.9924,-0.0298,-0.2439,0.0000,-0.3049
1595877728,-0.0700,-0.9897,-0.0286,-0.2439,0.0000,-0.1220
1595877728,-0.0721,-0.9888,-0.0295,-0.3049,0.0000,0.1829
1595877728,-0.0685,-0.9908,-0.0289,-0.3659,0.0000,-0.1220
1595877728,-0.0667,-0.9913,-0.0251,-0.3659,0.0610,-0.3049
1595877728,-0.0693,-0.9907,-0.0271,-0.3049,-0.0610,0.0610
1595877728,-0.0693,-0.9899,-0.0279,-0.2439,0.0000,0.1220
1595877728,-0.0665,-0.9907,-0.0267,-0.3659,0.0000,-0.3049
1595877728,-0.0698,-0.9908,-0.0291,-0.2439,0.0000,-0.2439
1595877728,-0.0693,-0.9908,-0.0298,-0.2439,0.0610,0.1829
1595877728,-0.0677,-0.9913,-0.0291,-0.3049,0.0000,-0.0610
1595877728,-0.0707,-0.9932,-0.0297,-0.3049,0.0000,-0.3049
1595877728,-0.0717,-0.9886,-0.0287,-0.2439,-0.0610,0.0610
1595877728,-0.0686,-0.9906,-0.0269,-0.3049,-0.1220,0.1220
1595877728,-0.0679,-0.9921,-0.0276,-0.2439,0.0000,-0.2439
1595877728,-0.0693,-0.9904,-0.0270,-0.2439,-0.1220,-0.3049
1595877728,-0.0703,-0.9906,-0.0251,-0.2439,0.0000,0.1220
1595877728,-0.0684,-0.9922,-0.0300,-0.3049,0.0000,0.0000
1595877728,-0.0686,-0.9929,-0.0297,-0.3659,0.0000,-0.3659
1595877728,-0.0717,-0.9891,-0.0283,-0.3049,-0.0610,-0.0610
1595877728,-0.0708,-0.9900,-0.0282,-0.1829,0.0000,0.2439
1595877728,-0.0697,-0.9917,-0.0271,-0.2439,-0.0610,-0.1829
1595877728,-0.0684,-0.9891,-0.0283,-0.2439,-0.0610,-0.3049
1595877728,-0.0698,-0.9898,-0.0266,-0.2439,-0.0610,0.1220
1595877728,-0.0671,-0.9910,-0.0286,-0.2439,-0.0610,0.1220
1595877728,-0.0674,-0.9920,-0.0294,-0.2439,0.0610,-0.3049
1595877728,-0.0705,-0.9905,-0.0284,-0.3659,0.0000,-0.1220
1595877728,-0.0693,-0.9881,-0.0290,-0.3049,-0.1220,0.2439
1595877728,-0.0673,-0.9907,-0.0272,-0.2439,-0.0610,-0.1220
1595877728,-0.0695,-0.9915,-0.0279,-0.2439,0.0610,-0.3049
1595877728,-0.0711,-0.9916,-0.0275,-0.3049,0.0610,0.0610
1595877728,-0.0690,-0.9900,-0.0270,-0.2439,-0.0610,0.1220
1595877728,-0.0681,-0.9918,-0.0286,-0.3049,0.0000,-0.1829
1595877728,-0.0706,-0.9918,-0.0279,-0.3659,0.0000,-0.1220
1595877728,-0.0706,-0.9910,-0.0291,-0.3049,0.0000,0.1829
1595877728,-0.0670,-0.9932,-0.0292,-0.2439,0.0610,-0.1220
1595877728,-0.0688,-0.9892,-0.0261,-0.2439,0.0000,-0.3659
1595877728,-0.0704,-0.9894,-0.0263,-0.3049,-0.0610,-0.0610
1595877728,-0.0678,-0.9910,-0.0274,-0.4268,0.0000,0.0610
1595877728,-0.0665,-0.9935,-0.0255,-0.3659,0.0610,-0.3049
1595877728,-0.0687,-0.9912,-0.0291,-0.3049,0.0000,-0.1829
1595877728,-0.0704,-0.9898,-0.0292,-0.3049,0.0000,0.1220
1595877728,-0.0704,-0.9924,-0.0287,-0.3049,-0.0610,0.0000
1595877728,-0.0673,-0.9935,-0.0309,-0.3049,-0.0610,-0.3049
1595877728,-0.0724,-0.9907,-0.0281,-0.3049,0.0000,0.0000
1595877728,-0.0708,-0.9910,-0.0276,-0.3049,-0.0610,0.1220
1595877728,-0.0669,-0.9931,-0.0280,-0.3659,-0.0610,-0.1220
1595877728,-0.0684,-0.9917,-0.0277,-0.3659,0.0000,-0.2439
1595877728,-0.0710,-0.9893,-0.0276,-0.3049,0.0610,0.0610
1595877728,-0.0663,-0.9904,-0.0283,-0.3659,0.0000,0.0610
1595877728,-0.0662,-0.9916,-0.0283,-0.3659,-0.0610,-0.3049
1595877728,-0.0695,-0.9930,-0.0280,-0.3049,-0.0610,-0.1220
1595877728,-0.0696,-0.9915,-0.0299,-0.3049,0.0000,0.1829
1595877728,-0.0671,-0.9911,-0.0295,-0.3659,0.0000,-0.1220
1595877728,-0.0691,-0.9917,-0.0276,-0.3049,0.0610,-0.2439
1595877728,-0.0724,-0.9914,-0.0277,-0.1829,0.0000,0.0610
1595877729,-0.0684,-0.9911,-0.0275,-0.2439,0.0000,0.0000
1595877729,-0.0690,-0.9907,-0.0266,-0.3049,0.0000,-0.3049
1595877729,-0.0698,-0.9906,-0.0290,-0.3049,0.0000,-0.2439
1595877729,-0.0693,-0.9904,-0.0258,-0.3049,0.0000,0.1220
1595877729,-0.0673,-0.9914,-0.0273,-0.2439,0.0000,-0.1220
1595877729,-0.0682,-0.9913,-0.0273,-0.2439,0.0000,-0.2439
1595877729,-0.0691,-0.9904,-0.0291,-0.3049,0.0000,0.0000
1595877729,-0.0695,-0.9920,-0.0293,-0.3049,0.0000,0.1220
1595877729,-0.0679,-0.9919,-0.0284,-0.2439,0.0000,-0.1829
1595877729,-0.0678,-0.9900,-0.0266,-0.2439,0.0610,-0.1829
1595877729,-0.0707,-0.9921,-0.0261,-0.3049,0.0610,0.0000
1595877729,-0.0698,-0.9912,-0.0300,-0.2439,0.0000,-0.1220
1595877729,-0.0698,-0.9908,-0.0283,-0.3049,0.0000,-0.2439
1595877729,-0.0699,-0.9905,-0.0285,-0.3049,0.0000,-0.0610
1595877729,-0.0682,-0.9902,-0.0294,-0.3049,0.0000,0.1220
1595877729,-0.0667,-0.9902,-0.0277,-0.2439,-0.0610,-0.2439
1595877729,-0.0688,-0.9910,-0.0283,-0.3049,0.0000,-0.2439
1595877729,-0.0687,-0.9910,-0.0283,-0.3659,0.0610,0.1829
1595877729,-0.0670,-0.9898,-0.0271,-0.3659,0.0000,0.0610
1595877729,-0.0676,-0.9910,-0.0282,-0.2439,0.0610,-0.2439
1595877729,-0.0707,-0.9893,-0.0265,-0.2439,-0.0610,-0.0610
1595877729,-0.0696,-0.9902,-0.0267,-0.3049,-0.0610,0.0610
1595877729,-0.0677,-0.9895,-0.0275,-0.3049,0.0000,-0.1220
1595877729,-0.0692,-0.9895,-0.0281,-0.3049,0.0000,-0.2439
1595877729,-0.0693,-0.9912,-0.0294,-0.3049,-0.0610,0.0000
1595877729,-0.0673,-0.9919,-0.0284,-0.1829,-0.0610,0.0610
1595877729,-0.0674,-0.9905,-0.0263,-0.2439,-0.0610,-0.2439
1595877729,-0.0702,-0.9887,-0.0274,-0.1829,0.0000,-0.1220
1595877729,-0.0702,-0.9885,-0.0260,-0.1829,0.0000,0.0000
1595877729,-0.0678,-0.9910,-0.0273,-0.3049,-0.0610,-0.0610
1595877729,-0.0681,-0.9905,-0.0293,-0.3049,-0.1220,-0.1829
1595877729,-0.0694,-0.9904,-0.0302,-0.2439,0.0000,-0.0610
1595877729,-0.0687,-0.9910,-0.0271,-0.2439,0.0610,0.0000
1595877729,-0.0679,-0.9895,-0.0281,-0.3659,0.0000,-0.1220
1595877729,-0.0672,-0.9901,-0.0267,-0.3049,-0.0610,-0.1220
1595877729,-0.0696,-0.9902,-0.0277,-0.3049,0.0000,0.0000
1595877729,-0.0698,-0.9894,-0.0273,-0.2439,0.0610,0.0000
1595877729,-0.0688,-0.9915,-0.0280,-0.3049,0.0610,-0.1220
1595877729,-0.0684,-0.9908,-0.0286,-0.3659,-0.0610,-0.0610
1595877729,-0.0687,-0.9910,-0.0277,-0.3049,-0.0610,0.0000
1595877729,-0.0688,-0.9908,-0.0277,-0.2439,0.1220,-0.1220
1595877729,-0.0695,-0.9911,-0.0290,-0.2439,0.0000,-0.1829
1595877729,-0.0694,-0.9897,-0.0280,-0.3049,0.0000,0.0000
1595877729,-0.0688,-0.9893,-0.0281,-0.2439,0.0000,0.0000
1595877729,-0.0695,-0.9907,-0.0284,-0.3049,0.0000,-0.2439
1595877729,-0.0688,-0.9902,-0.0281,-0.3049,0.0000,-0.1220
1595877729,-0.0680,-0.9917,-0.0280,-0.3049,0.0000,0.0610
1595877729,-0.0677,-0.9915,-0.0280,-0.3049,-0.1220,-0.0610
1595877729,-0.0701,-0.9910,-0.0290,-0.2439,-0.1220,-0.1220
1595877729,-0.0692,-0.9893,-0.0286,-0.3659,0.0000,-0.0610
1595877729,-0.0688,-0.9904,-0.0281,-0.3659,0.0000,0.0610
1595877729,-0.0688,-0.9911,-0.0273,-0.3049,0.0000,-0.0610
1595877729,-0.0676,-0.9907,-0.0273,-0.2439,0.0000,-0.1220
1595877729,-0.0700,-0.9911,-0.0270,-0.2439,-0.0610,0.0000
1595877729,-0.0696,-0.9915,-0.0275,-0.2439,-0.0610,-0.0610
1595877729,-0.0684,-0.9907,-0.0284,-0.3659,0.0000,-0.1829
1595877729,-0.0672,-0.9914,-0.0279,-0.3049,0.0000,-0.1829
1595877729,-0.0679,-0.9913,-0.0271,-0.3659,-0.0610,-0.0610
1595877729,-0.0687,-0.9911,-0.0277,-0.3049,0.0000,-0.1220
1595877729,-0.0684,-0.9904,-0.0270,-0.3049,0.0610,-0.1220
1595877729,-0.0701,-0.9901,-0.0266,-0.3659,0.0000,0.0000
1595877729,-0.0677,-0.9891,-0.0283,-0.2439,-0.0610,0.0610
1595877729,-0.0679,-0.9900,-0.0287,-0.2439,-0.0610,-0.1829
1595877729,-0.0687,-0.9902,-0.0263,-0.3049,-0.0610,-0.2439
1595877729,-0.0711,-0.9899,-0.0284,-0.3049,-0.0610,0.0000
1595877729,-0.0683,-0.9929,-0.0287,-0.2439,0.0000,-0.0610
1595877729,-0.0682,-0.9911,-0.0278,-0.3049,0.0000,-0.1220
1595877729,-0.0703,-0.9910,-0.0296,-0.1220,-0.0610,0.0000
1595877729,-0.0704,-0.9927,-0.0291,-0.2439,0.0000,0.0000
1595877729,-0.0684,-0.9918,-0.0269,-0.3049,-0.0610,-0.1829
1595877729,-0.0690,-0.9897,-0.0281,-0.1829,-0.0610,-0.1220
1595877729,-0.0699,-0.9904,-0.0259,-0.2439,0.0000,0.0610
1595877729,-0.0674,-0.9930,-0.0293,-0.2439,0.0610,0.0000
1595877729,-0.0657,-0.9925,-0.0292,-0.3049,-0.0610,-0.1220
1595877729,-0.0686,-0.9903,-0.0278,-0.3049,0.0000,-0.0610
1595877729,-0.0695,-0.9892,-0.0266,-0.3049,0.0000,0.0000
1595877729,-0.0701,-0.9911,-0.0295,-0.3049,-0.0610,0.0000
1595877729,-0.0688,-0.9912,-0.0308,-0.2439,-0.0610,-0.1829
1595877729,-0.0707,-0.9914,-0.0277,-0.3049,0.0610,-0.0610
1595877729,-0.0711,-0.9918,-0.0280,-0.2439,0.0610,0.0000
1595877729,-0.0671,-0.9918,-0.0274,-0.2439,0.0000,-0.1829
1595877729,-0.0687,-0.9900,-0.0292,-0.3049,0.0610,-0.1829
1595877729,-0.0688,-0.9908,-0.0304,-0.1829,0.0610,0.0610
1595877729,-0.0675,-0.9924,-0.0286,-0.1829,0.0000,0.0000
1595877729,-0.0668,-0.9918,-0.0256,-0.3049,-0.0610,-0.1829
1595877729,-0.0706,-0.9907,-0.0269,-0.3659,0.0000,-0.0610
1595877729,-0.0699,-0.9907,-0.0302,-0.2439,0.0610,0.0000
1595877729,-0.0688,-0.9905,-0.0288,-0.1829,0.0000,-0.1829
1595877729,-0.0673,-0.9900,-0.0265,-0.3049,0.0000,-0.1829
1595877729,-0.0695,-0.9911,-0.0280,-0.3049,-0.0610,0.0610
1595877729,-0.0684,-0.9919,-0.0305,-0.3049,-0.0610,0.0610
1595877729,-0.0694,-0.9913,-0.0261,-0.3049,-0.0610,-0.2439
1595877729,-0.0700,-0.9907,-0.0266,-0.3049,-0.0610,-0.1829
1595877729,-0.0695,-0.9911,-0.0287,-0.3659,0.0000,0.1220
1595877729,-0.0704,-0.9924,-0.0261,-0.3659,0.0610,-0.1220
1595877729,-0.0684,-0.9894,-0.0277,-0.3049,0.0610,-0.1829
1595877729,-0.0697,-0.9914,-0.0286,-0.3049,-0.0610,0.0610
1595877729,-0.0675,-0.9908,-0.0277,-0.3049,-0.1220,0.0000
1595877729,-0.0681,-0.9912,-0.0282,-0.3049,0.0000,-0.1829
1595877729,-0.0688,-0.9900,-0.0289,-0.2439,0.0000,-0.0610
1595877729,-0.0703,-0.9890,-0.0284,-0.2439,0.0000,0.0610
1595877729,-0.0687,-0.9906,-0.0287,-0.3659,-0.0610,-0.0610
1595877730,-0.0681,-0.9908,-0.0277,-0.3049,0.0000,-0.1829
1595877730,-0.0717,-0.9896,-0.0282,-0.3049,0.0000,-0.0610
1595877730,-0.0687,-0.9883,-0.0258,-0.2439,-0.0610,0.0000
1595877730,-0.0673,-0.9914,-0.0273,-0.3049,0.0000,-0.1220
1595877730,-0.0683,-0.9922,-0.0287,-0.3049,0.0610,-0.1829
1595877730,-0.0687,-0.9897,-0.0285,-0.3049,0.0000,0.0610
1595877730,-0.0679,-0.9911,-0.0256,-0.2439,-0.0610,0.0000
1595877730,-0.0678,-0.9911,-0.0289,-0.3049,-0.0610,-0.1829
1595877730,-0.0693,-0.9894,-0.0264,-0.2439,-0.0610,-0.1220
1595877730,-0.0701,-0.9896,-0.0275,-0.3659,-0.0610,0.0000
1595877730,-0.0692,-0.9915,-0.0283,-0.3049,-0.0610,-0.1220
1595877730,-0.0706,-0.9890,-0.0267,-0.3049,-0.0610,-0.1829
1595877730,-0.0696,-0.9905,-0.0283,-0.2439,0.0000,0.0610
1595877730,-0.0693,-0.9917,-0.0292,-0.2439,0.0000,0.0000
1595877730,-0.0697,-0.9908,-0.0279,-0.2439,0.0610,-0.1829
1595877730,-0.0679,-0.9894,-0.0281,-0.2439,0.0000,-0.0610
1595877730,-0.0685,-0.9905,-0.0287,-0.3049,0.0610,0.0610
1595877730,-0.0674,-0.9935,-0.0294,-0.3049,0.0610,-0.1220
1595877730,-0.0684,-0.9902,-0.0270,-0.2439,0.0000,-0.1829
1595877730,-0.0709,-0.9884,-0.0284,-0.2439,0.0000,-0.0610
1595877730,-0.0696,-0.9904,-0.0289,-0.2439,0.0610,-0.0610
1595877730,-0.0674,-0.9921,-0.0255,-0.3049,0.0000,-0.1829
1595877730,-0.0701,-0.9901,-0.0276,-0.2439,0.0000,-0.1220
1595877730,-0.0709,-0.9893,-0.0288,-0.2439,0.0000,0.1220
1595877730,-0.0693,-0.9894,-0.0270,-0.3049,0.0000,-0.0610
1595877730,-0.0680,-0.9911,-0.0270,-0.3659,0.0000,-0.2439
1595877730,-0.0693,-0.9902,-0.0289,-0.3049,-0.0610,0.0000
1595877730,-0.0685,-0.9926,-0.0273,-0.3659,0.0000,0.0610
1595877730,-0.0676,-0.9910,-0.0270,-0.2439,0.0610,-0.1220
1595877730,-0.0689,-0.9893,-0.0302,-0.3049,-0.0610,-0.1220
1595877730,-0.0721,-0.9885,-0.0293,-0.3049,-0.0610,0.0610
1595877730,-0.0677,-0.9908,-0.0281,-0.3049,-0.0610,-0.0610
1595877730,-0.0703,-0.9930,-0.0283,-0.2439,0.0610,-0.1220
1595877730,-0.0715,-0.9899,-0.0278,-0.3659,0.0610,0.0000
1595877730,-0.0659,-0.9893,-0.0284,-0.3049,0.0000,0.1220
1595877730,-0.0651,-0.9916,-0.0291,-0.2439,-0.0610,-0.1220
1595877730,-0.0696,-0.9911,-0.0286,-0.2439,0.0000,-0.2439
1595877730,-0.0709,-0.9894,-0.0283,-0.3049,0.0000,0.0610
1595877730,-0.0676,-0.9902,-0.0280,-0.3049,0.0000,0.0000
1595877730,-0.0681,-0.9925,-0.0298,-0.2439,0.0610,-0.2439
1595877730,-0.0698,-0.9883,-0.0295,-0.3659,0.0610,-0.1220
1595877730,-0.0694,-0.9911,-0.0282,-0.2439,0.0000,0.0610
1595877730,-0.0690,-0.9938,-0.0285,-0.2439,0.0000,-0.0610
1595877730,-0.0704,-0.9902,-0.0273,-0.2439,0.0000,-0.1829
1595877730,-0.0696,-0.9904,-0.0282,-0.3049,0.0000,0.0000
1595877730,-0.0686,-0.9919,-0.0272,-0.2439,-0.0610,0.1220
1595877730,-0.0670,-0.9922,-0.0285,-0.2439,0.0000,-0.1829
1595877730,-0.0704,-0.9917,-0.0298,-0.3049,0.0610,-0.1829
1595877730,-0.0706,-0.9914,-0.0298,-0.1829,0.0000,0.0610
1595877730,-0.0712,-0.9923,-0.0291,-0.2439,-0.0610,0.0000
1595877730,-0.0676,-0.9921,-0.0275,-0.3049,0.0000,-0.2439
1595877730,-0.0684,-0.9906,-0.0282,-0.2439,0.0610,-0.0610
1595877730,-0.0679,-0.9868,-0.0280,-0.3049,0.0000,0.0000
1595877730,-0.0673,-0.9907,-0.0281,-0.3049,0.0000,-0.1829
1595877730,-0.0684,-0.9914,-0.0296,-0.2439,0.0000,-0.1829
1595877730,-0.0692,-0.9927,-0.0282,-0.2439,0.0000,0.0610
1595877730,-0.0673,-0.9907,-0.0278,-0.2439,0.0000,-0.0610
1595877730,-0.0664,-0.9901,-0.0286,-0.3049,0.0000,-0.1829
1595877730,-0.0706,-0.9897,-0.0291,-0.3049,-0.0610,-0.0610
1595877730,-0.0708,-0.9911,-0.0286,-0.3049,-0.0610,0.0610
1595877730,-0.0665,-0.9899,-0.0259,-0.3659,-0.0610,-0.0610
1595877730,-0.0680,-0.9897,-0.0258,-0.3049,0.0610,-0.1220
1595877730,-0.0682,-0.9884,-0.0287,-0.3049,0.0000,0.0000
1595877730,-0.0693,-0.9915,-0.0278,-0.2439,0.0000,0.0000
1595877730,-0.0685,-0.9905,-0.0293,-0.3659,0.0610,-0.1829
1595877730,-0.0701,-0.9896,-0.0293,-0.2439,0.0000,-0.0610
1595877730,-0.0703,-0.9908,-0.0289,-0.2439,-0.0610,0.0610
1595877730,-0.0687,-0.9910,-0.0274,-0.2439,0.0000,-0.1829
1595877730,-0.0682,-0.9912,-0.0292,-0.3049,0.0610,-0.1829
1595877730,-0.0710,-0.9900,-0.0284,-0.3049,0.0000,0.0000
1595877730,-0.0678,-0.9907,-0.0284,-0.3049,0.0000,0.0000
1595877730,-0.0676,-0.9902,-0.0280,-0.2439,0.0000,-0.1220
1595877730,-0.0678,-0.9907,-0.0271,-0.3049,0.0610,-0.1220
1595877730,-0.0688,-0.9903,-0.0275,-0.3659,0.0000,0.0000
1595877730,-0.0684,-0.9911,-0.0282,-0.3659,0.0000,-0.1220
1595877730,-0.0672,-0.9904,-0.0293,-0.3049,0.0610,-0.1220
1595877730,-0.0718,-0.9885,-0.0269,-0.2439,0.0000,0.0000
1595877730,-0.0705,-0.9913,-0.0280,-0.3049,0.0000,0.0000
1595877730,-0.0679,-0.9921,-0.0270,-0.2439,0.0000,-0.1220
1595877730,-0.0680,-0.9921,-0.0264,-0.3659,0.0000,-0.1829
1595877730,-0.0690,-0.9915,-0.0291,-0.3049,0.0610,0.0000
1595877730,-0.0696,-0.9895,-0.0296,-0.3049,0.0000,-0.0610
1595877730,-0.0683,-0.9904,-0.0283,-0.3049,0.0000,-0.1829
1595877730,-0.0684,-0.9930,-0.0270,-0.2439,0.0000,-0.0610
1595877730,-0.0707,-0.9923,-0.0278,-0.2439,0.0000,0.1220
1595877730,-0.0704,-0.9904,-0.0278,-0.3049,-0.0610,-0.0610
1595877730,-0.0695,-0.9910,-0.0271,-0.3049,-0.0610,-0.1829
1595877730,-0.0707,-0.9919,-0.0270,-0.3659,-0.0610,-0.0610
1595877730,-0.0688,-0.9914,-0.0270,-0.3049,-0.0610,-0.0610
1595877730,-0.0690,-0.9903,-0.0292,-0.3049,0.0000,-0.1220
1595877730,-0.0696,-0.9905,-0.0284,-0.3049,0.0000,-0.1220
1595877730,-0.0701,-0.9907,-0.0269,-0.2439,0.0000,-0.0610
1595877730,-0.0686,-0.9902,-0.0290,-0.1829,-0.0610,0.0000
1595877730,-0.0700,-0.9901,-0.0261,-0.3049,-0.0610,-0.0610
1595877730,-0.0683,-0.9911,-0.0296,-0.2439,0.0000,-0.0610
1595877730,-0.0663,-0.9905,-0.0273,-0.2439,0.0610,-0.0610
1595877730,-0.0677,-0.9913,-0.0283,-0.1829,0.0000,-0.1220
1595877730,-0.0692,-0.9910,-0.0294,-0.1829,-0.0610,-0.1220
1595877730,-0.0701,-0.9904,-0.0288,-0.2439,0.0000,0.0000
1595877730,-0.0676,-0.9920,-0.0287,-0.2439,0.0000,-0.0610
1595877730,-0.0670,-0.9911,-0.0275,-0.2439,0.0000,-0.1829
1595877731,-0.0687,-0.9905,-0.0270,-0.1829,-0.0610,-0.0610
1595877731,-0.0690,-0.9888,-0.0291,-0.3049,0.0000,0.0610
1595877731,-0.0667,-0.9907,-0.0280,-0.3049,0.0000,-0.0610
1595877731,-0.0677,-0.9914,-0.0291,-0.2439,-0.1220,-0.1220
1595877731,-0.0690,-0.9903,-0.0314,-0.2439,0.0000,-0.0610
1595877731,-0.0680,-0.9896,-0.0277,-0.2439,0.0000,-0.0610
1595877731,-0.0696,-0.9890,-0.0267,-0.2439,0.0610,-0.0610
1595877731,-0.0700,-0.9907,-0.0276,-0.3049,0.0610,-0.0610
1595877731,-0.0692,-0.9903,-0.0238,-0.2439,-0.0610,0.0000
1595877731,-0.0687,-0.9911,-0.0263,-0.3049,0.0000,-0.0610
1595877731,-0.0675,-0.9917,-0.0267,-0.4268,0.1220,-0.1220
1595877731,-0.0668,-0.9902,-0.0289,-0.3049,-0.0610,-0.0610
1595877731,-0.0685,-0.9900,-0.0287,-0.3049,0.0000,0.0610
1595877731,-0.0686,-0.9905,-0.0273,-0.1829,0.0000,-0.1220
1595877731,-0.0696,-0.9897,-0.0303,-0.2439,0.0000,-0.1829
1595877731,-0.0693,-0.9894,-0.0282,-0.3049,-0.0610,0.0000
1595877731,-0.0682,-0.9906,-0.0293,-0.3659,0.0000,0.0000
1595877731,-0.0691,-0.9910,-0.0272,-0.2439,-0.0610,-0.1829
1595877731,-0.0698,-0.9901,-0.0272,-0.2439,-0.0610,-0.0610
1595877731,-0.0677,-0.9908,-0.0275,-0.3049,-0.0610,0.1220
1595877731,-0.0671,-0.9918,-0.0284,-0.3049,0.0610,-0.0610
1595877731,-0.0695,-0.9935,-0.0284,-0.2439,0.0000,-0.1220
1595877731,-0.0702,-0.9893,-0.0286,-0.3049,-0.0610,0.0000
1595877731,-0.0687,-0.9924,-0.0295,-0.3049,-0.0610,0.0000
1595877731,-0.0693,-0.9922,-0.0278,-0.3049,-0.0610,-0.1829
1595877731,-0.0716,-0.9901,-0.0257,-0.3049,0.0000,-0.1220
1595877731,-0.0674,-0.9907,-0.0261,-0.3049,-0.0610,0.0000
1595877731,-0.0666,-0.9915,-0.0270,-0.2439,-0.0610,0.0000
1595877731,-0.0691,-0.9907,-0.0259,-0.3049,0.0610,-0.1829
1595877731,-0.0696,-0.9898,-0.0271,-0.2439,0.0000,-0.1220
1595877731,-0.0695,-0.9901,-0.0280,-0.1829,0.0000,0.0610
1595877731,-0.0688,-0.9895,-0.0281,-0.2439,0.0000,-0.1220
1595877731,-0.0674,-0.9898,-0.0277,-0.3049,0.0000,-0.1220
1595877731,-0.0694,-0.9911,-0.0288,-0.1220,-0.0610,0.0000
1595877731,-0.0688,-0.9904,-0.0268,-0.2439,0.0000,-0.0610
1595877731,-0.0683,-0.9909,-0.0274,-0.3659,-0.0610,-0.1829
1595877731,-0.0696,-0.9897,-0.0288,-0.3049,-0.0610,-0.0610
1595877731,-0.0691,-0.9902,-0.0305,-0.1829,-0.0610,0.0610
1595877731,-0.0684,-0.9910,-0.0278,-0.2439,-0.0610,-0.0610
1595877731,-0.0690,-0.9918,-0.0280,-0.2439,0.0000,-0.1829
1595877731,-0.0701,-0.9892,-0.0284,-0.1829,0.0000,0.0000
1595877731,-0.0677,-0.9908,-0.0264,-0.2439,0.0610,0.0000
1595877731,-0.0665,-0.9906,-0.0275,-0.3049,0.0000,-0.1829
1595877731,-0.0688,-0.9915,-0.0286,-0.2439,-0.0610,-0.1220
1595877731,-0.0685,-0.9916,-0.0274,-0.3049,-0.0610,0.0610
1595877731,-0.0667,-0.9904,-0.0287,-0.2439,0.0000,-0.0610
1595877731,-0.0676,-0.9909,-0.0275,-0.2439,-0.0610,-0.2439
1595877731,-0.0701,-0.9894,-0.0291,-0.2439,-0.0610,-0.0610
1595877731,-0.0685,-0.9893,-0.0280,-0.3049,-0.0610,0.0610
1595877731,-0.0691,-0.9906,-0.0268,-0.2439,0.0000,-0.1220
1595877731,-0.0690,-0.9911,-0.0280,-0.2439,0.0000,-0.1220
1595877731,-0.0691,-0.9898,-0.0286,-0.3049,-0.0610,0.0000
1595877731,-0.0673,-0.9911,-0.0245,-0.3659,-0.1220,-0.0610
1595877731,-0.0701,-0.9919,-0.0275,-0.3049,0.0000,-0.1220
1595877731,-0.0697,-0.9899,-0.0267,-0.2439,0.0610,-0.0610
1595877731,-0.0674,-0.9909,-0.0254,-0.1829,0.0000,0.0610
1595877731,-0.0677,-0.9917,-0.0301,-0.2439,0.0000,-0.0610
1595877731,-0.0684,-0.9908,-0.0310,-0.3049,0.0000,-0.1220
1595877731,-0.0678,-0.9915,-0.0289,-0.2439,-0.0610,0.0610
1595877731,-0.0684,-0.9916,-0.0297,-0.3659,-0.0610,0.0000
1595877731,-0.0677,-0.9905,-0.0273,-0.4268,-0.0610,-0.1220
1595877731,-0.0668,-0.9879,-0.0289,-0.3049,-0.0610,-0.0610
1595877731,-0.0691,-0.9893,-0.0299,-0.2439,0.0000,0.0610
1595877731,-0.0681,-0.9912,-0.0279,-0.2439,0.0000,-0.1220
1595877731,-0.0677,-0.9896,-0.0275,-0.3049,-0.0610,-0.1829
1595877731,-0.0696,-0.9917,-0.0293,-0.3049,0.0000,0.0000
1595877731,-0.0671,-0.9898,-0.0289,-0.3659,0.0000,0.0000
1595877731,-0.0690,-0.9915,-0.0286,-0.3049,0.0000,-0.2439
1595877731,-0.0702,-0.9916,-0.0268,-0.2439,-0.1220,-0.1829
1595877731,-0.0689,-0.9889,-0.0259,-0.3049,0.0000,0.1220
1595877731,-0.0684,-0.9908,-0.0264,-0.3659,0.0000,-0.1220
1595877731,-0.0702,-0.9913,-0.0261,-0.3049,-0.0610,-0.2439
1595877731,-0.0686,-0.9893,-0.0296,-0.2439,-0.0610,0.0000
1595877731,-0.0676,-0.9925,-0.0287,-0.2439,-0.0610,0.0000
1595877731,-0.0684,-0.9916,-0.0275,-0.3049,-0.0610,-0.1220
1595877731,-0.0676,-0.9888,-0.0292,-0.3049,-0.0610,-0.1220
1595877731,-0.0688,-0.9904,-0.0298,-0.3049,0.0000,-0.1220
1595877731,-0.0676,-0.9907,-0.0281,-0.2439,0.0000,-0.1220
1595877731,-0.0667,-0.9923,-0.0272,-0.3659,0.0000,-0.1829
1595877731,-0.0700,-0.9913,-0.0281,-0.3049,0.0000,-0.0610
1595877731,-0.0692,-0.9915,-0.0280,-0.3049,0.0000,0.0000
1595877731,-0.0699,-0.9907,-0.0284,-0.2439,0.0610,-0.0610
1595877731,-0.0701,-0.9901,-0.0283,-0.2439,0.0000,-0.1220
1595877731,-0.0688,-0.9907,-0.0292,-0.3049,0.0000,0.0610
1595877731,-0.0681,-0.9912,-0.0287,-0.3049,0.0610,0.0000
1595877731,-0.0679,-0.9912,-0.0280,-0.3659,0.0000,-0.2439
1595877731,-0.0682,-0.9927,-0.0272,-0.3049,0.0000,-0.0610
1595877731,-0.0663,-0.9926,-0.0282,-0.3659,-0.0610,-0.0610
1595877731,-0.0677,-0.9916,-0.0288,-0.3049,-0.0610,-0.1829
1595877731,-0.0679,-0.9891,-0.0271,-0.3049,-0.0610,-0.1220
1595877731,-0.0655,-0.9900,-0.0275,-0.3049,-0.0610,0.0610
1595877731,-0.0674,-0.9932,-0.0276,-0.2439,-0.0610,-0.1220
1595877731,-0.0698,-0.9901,-0.0289,-0.3659,0.0000,-0.1829
1595877731,-0.0701,-0.9901,-0.0267,-0.3659,-0.1220,0.1220
1595877731,-0.0671,-0.9907,-0.0279,-0.3049,-0.0610,-0.0610
1595877731,-0.0692,-0.9936,-0.0272,-0.3049,-0.0610,-0.3049
1595877731,-0.0675,-0.9900,-0.0279,-0.3659,-0.0610,0.0000
1595877731,-0.0696,-0.9898,-0.0270,-0.3659,-0.0610,0.0610
1595877731,-0.0675,-0.9908,-0.0281,-0.3049,-0.0610,-0.2439
1595877731,-0.0706,-0.9895,-0.0292,-0.2439,-0.0610,-0.1829
1595877731,-0.0691,-0.9896,-0.0275,-0.2439,-0.0610,0.1220
1595877732,-0.0682,-0.9922,-0.0273,-0.2439,0.0610,-0.0610
1595877732,-0.0692,-0.9904,-0.0274,-0.3049,0.0000,-0.3049
1595877732,-0.0687,-0.9897,-0.0269,-0.3049,-0.0610,0.0610
1595877732,-0.0675,-0.9911,-0.0274,-0.2439,0.0000,0.0000
1595877732,-0.0694,-0.9902,-0.0289,-0.3049,0.0000,-0.3049
1595877732,-0.0695,-0.9915,-0.0276,-0.3049,0.0000,0.0000
1595877732,-0.0679,-0.9884,-0.0268,-0.3049,-0.0610,0.1829
1595877732,-0.0660,-0.9915,-0.0269,-0.2439,-0.0610,-0.2439
1595877732,-0.0698,-0.9875,-0.0275,-0.2439,-0.0610,-0.3049
1595877732,-0.0688,-0.9888,-0.0270,-0.3049,-0.0610,0.2439
1595877732,-0.0670,-0.9905,-0.0292,-0.3659,0.0610,-0.0610
1595877732,-0.0686,-0.9904,-0.0286,-0.3659,0.0000,-0.3659
1595877732,-0.0715,-0.9913,-0.0267,-0.2439,0.0000,0.1220
1595877732,-0.0690,-0.9922,-0.0253,-0.2439,-0.0610,0.1220
1595877732,-0.0670,-0.9907,-0.0281,-0.3659,0.0610,-0.3659
1595877732,-0.0686,-0.9905,-0.0266,-0.2439,-0.0610,-0.1829
1595877732,-0.0698,-0.9921,-0.0258,-0.2439,0.0000,0.1829
1595877732,-0.0685,-0.9911,-0.0281,-0.3049,0.0000,-0.1220
1595877732,-0.0690,-0.9922,-0.0296,-0.3659,0.0000,-0.3049
1595877732,-0.0689,-0.9901,-0.0275,-0.3049,-0.0610,0.0000
1595877732,-0.0662,-0.9905,-0.0273,-0.2439,0.0000,0.0000
1595877732,-0.0677,-0.9908,-0.0280,-0.3659,0.0000,-0.2439
1595877732,-0.0718,-0.9918,-0.0259,-0.2439,0.0000,-0.1220
1595877732,-0.0708,-0.9912,-0.0277,-0.3049,0.0000,0.1829
1595877732,-0.0690,-0.9907,-0.0292,-0.3049,-0.0610,-0.1220
1595877732,-0.0686,-0.9897,-0.0298,-0.2439,-0.0610,-0.2439
1595877732,-0.0706,-0.9896,-0.0307,-0.3659,0.0000,0.0610
1595877732,-0.0705,-0.9893,-0.0287,-0.4268,0.0000,0.0610
1595877732,-0.0692,-0.9882,-0.0294,-0.3659,0.0610,-0.2439
1595877732,-0.0691,-0.9881,-0.0279,-0.2439,-0.0610,-0.2439
1595877732,-0.0681,-0.9907,-0.0262,-0.3049,0.0000,-0.1220
1595877732,-0.0687,-0.9899,-0.0235,-0.3049,0.0610,-0.1829
1595877732,-0.0682,-0.9905,-0.0266,-0.2439,0.0000,-0.2439
1595877732,-0.0702,-0.9938,-0.0278,-0.3049,0.0610,-0.2439
1595877732,-0.0712,-0.9888,-0.0281,-0.2439,0.0000,0.1829
1595877732,-0.0696,-0.9915,-0.0300,-0.2439,0.0000,0.2439
1595877732,-0.0688,-0.9926,-0.0316,-0.3049,0.0000,-0.2439
1595877732,-0.0682,-0.9921,-0.0283,-0.3049,0.0000,-0.3049
1595877732,-0.0685,-0.9883,-0.0290,-0.3049,0.0000,0.0610
1595877732,-0.0682,-0.9897,-0.0266,-0.3049,0.0610,-0.0610
1595877732,-0.0674,-0.9929,-0.0269,-0.3049,0.1220,-0.1829
1595877732,-0.0681,-0.9924,-0.0264,-0.3049,0.0000,-0.0610
1595877732,-0.0698,-0.9928,-0.0308,-0.2439,0.0610,-0.1829
1595877732,-0.0723,-0.9904,-0.0303,-0.3049,0.0000,0.0000
1595877732,-0.0727,-0.9893,-0.0283,-0.2439,-0.0610,0.3659
1595877732,-0.0684,-0.9905,-0.0276,-0.2439,0.0000,-0.0610
1595877732,-0.0669,-0.9819,-0.0265,-0.3659,-0.0610,-0.4268
1595877732,-0.0690,-0.9984,-0.0259,-0.3659,-0.0610,-0.1829
1595877732,-0.0641,-0.9910,-0.0259,-0.2439,0.0610,-0.5488
1595877732,-0.0714,-0.9889,-0.0286,-0.3049,0.0610,-0.6707
1595877732,-0.2971,-0.8365,-0.0156,-0.3049,0.0000,0.2439
1595877732,0.0188,-1.0781,-0.0625,0.6707,1.4634,-11.9512
1595877732,0.1756,-1.2354,-0.0862,5.1829,13.7805,-64.3902
1595877732,-0.0059,-0.8357,-0.0162,1.7683,29.8780,-22.5000
1595877732,-0.1862,-0.9811,-0.0574,-0.3659,39.1463,41.0976
1595877732,-0.0676,-0.9893,-0.0606,0.4268,35.7927,14.5732
1595877732,-0.0143,-0.9960,0.0104,3.2317,23.2317,-2.4390
1595877732,-0.0483,-1.0070,0.0425,0.7927,12.7439,-1.4024
1595877732,-0.0798,-0.9811,-0.0051,0.2439,4.3902,13.8415
1595877732,-0.0871,-0.9813,-0.0353,0.1829,-0.4268,18.7805
1595877732,-0.0844,-0.9818,-0.0292,-0.4268,-0.7927,11.8902
1595877732,-0.0784,-0.9863,-0.0258,-0.3049,-0.1829,5.4878
1595877732,-0.0679,-0.9888,-0.0244,-0.4268,-0.0610,0.5488
1595877732,-0.0620,-0.9962,-0.0268,-0.4878,0.0000,-2.0732
1595877732,-0.0640,-0.9929,-0.0266,-0.4878,0.0610,-1.4024
1595877732,-0.0695,-0.9911,-0.0256,-0.3049,0.0000,0.0610
1595877732,-0.0706,-0.9879,-0.0276,-0.2439,-0.0610,0.3659
1595877732,-0.0688,-0.9904,-0.0279,-0.3659,-0.0610,0.0610
1595877732,-0.0691,-0.9927,-0.0314,-0.3049,0.0000,-0.0610
1595877732,-0.0685,-0.9886,-0.0276,-0.3659,0.0610,-0.1829
1595877732,-0.0690,-0.9920,-0.0281,-0.3659,-0.1220,-0.1829
1595877732,-0.0665,-0.9899,-0.0261,-0.3049,-0.1220,-0.1220
1595877732,-0.0649,-0.9950,-0.0255,-0.3049,-0.0610,-0.2439
1595877732,-0.0652,-0.9924,-0.0251,-0.3659,0.0610,-0.4878
1595877732,-0.0678,-0.9919,-0.0255,-0.3049,0.0610,-0.1220
1595877732,-0.0688,-0.9891,-0.0270,-0.1220,0.0000,0.3049
1595877732,-0.0687,-0.9886,-0.0265,-0.3049,-0.0610,-0.0610
1595877732,-0.0689,-0.9911,-0.0276,-0.3659,0.0000,-0.1220
1595877732,-0.0669,-0.9897,-0.0274,-0.3049,0.0000,0.0610
1595877732,-0.0649,-0.9918,-0.0261,-0.2439,0.0000,-0.2439
1595877732,-0.0671,-0.9922,-0.0280,-0.2439,-0.0610,-0.3659
1595877732,-0.0702,-0.9916,-0.0240,-0.1829,-0.0610,0.1220
1595877732,-0.0671,-0.9916,-0.0242,-0.1829,0.0000,0.3049
1595877732,-0.0669,-0.9923,-0.0267,-0.2439,-0.0610,-0.1829
1595877732,-0.0673,-0.9920,-0.0303,-0.3049,0.0610,-0.3659
1595877732,-0.0679,-0.9889,-0.0294,-0.3049,0.0000,0.0000
1595877732,-0.0671,-0.9883,-0.0280,-0.3049,0.0610,0.0000
1595877732,-0.0685,-0.9897,-0.0253,-0.3049,-0.0610,-0.1220
1595877732,-0.0704,-0.9906,-0.0220,-0.2439,0.0000,0.0000
1595877732,-0.0673,-0.9941,-0.0251,-0.3049,0.0000,-0.0610
1595877732,-0.0644,-0.9938,-0.0245,-0.3659,-0.0610,-0.4268
1595877732,-0.0679,-0.9916,-0.0280,-0.3049,0.0610,-0.2439
1595877732,-0.0718,-0.9910,-0.0262,-0.2439,0.0610,0.3659
1595877732,-0.0711,-0.9894,-0.0282,-0.3049,-0.0610,0.3049
1595877732,-0.0670,-0.9926,-0.0291,-0.3659,-0.0610,-0.2439
1595877732,-0.0671,-0.9899,-0.0284,-0.3049,-0.0610,-0.2439
1595877732,-0.0653,-0.9920,-0.0279,-0.3049,0.0610,-0.0610
1595877732,-0.0668,-0.9926,-0.0250,-0.2439,-0.0610,-0.1829
1595877732,-0.0714,-0.9919,-0.0237,-0.1220,0.0000,-0.0610
1595877732,-0.0723,-0.9888,-0.0264,-0.2439,-0.0610,0.3049
1595877732,-0.0668,-0.9922,-0.0294,-0.2439,-0.0610,0.1220
1595877732,-0.0646,-0.9928,-0.0266,-0.3659,-0.0610,-0.3659
1595877733,-0.0702,-0.9883,-0.0275,-0.3659,-0.0610,-0.1220
1595877733,-0.0689,-0.9901,-0.0297,-0.2439,-0.0610,0.2439
1595877733,-0.0679,-0.9899,-0.0294,-0.2439,0.0610,0.0610
1595877733,-0.0677,-0.9916,-0.0260,-0.2439,0.0000,-0.1829
1595877733,-0.0680,-0.9926,-0.0256,-0.2439,-0.1220,-0.0610
1595877733,-0.0665,-0.9934,-0.0276,-0.3049,-0.0610,-0.1220
1595877733,-0.0665,-0.9917,-0.0265,-0.3659,-0.0610,-0.3659
1595877733,-0.0688,-0.9891,-0.0264,-0.3659,0.0000,0.0000
1595877733,-0.0715,-0.9893,-0.0294,-0.3659,0.0000,0.3659
1595877733,-0.0685,-0.9907,-0.0298,-0.3049,0.0000,0.0000
1595877733,-0.0681,-0.9885,-0.0291,-0.3049,-0.0610,-0.3049
1595877733,-0.0695,-0.9913,-0.0278,-0.2439,-0.0610,0.0000
1595877733,-0.0689,-0.9923,-0.0253,-0.3049,0.0000,0.0000
1595877733,-0.0677,-0.9950,-0.0248,-0.2439,0.0000,-0.3049
1595877733,-0.0696,-0.9914,-0.0257,-0.2439,0.0000,-0.1220
1595877733,-0.0667,-0.9890,-0.0264,-0.1829,-0.0610,0.0000
1595877733,-0.0659,-0.9923,-0.0273,-0.3049,0.0000,-0.1220
1595877733,-0.0685,-0.9896,-0.0295,-0.3659,0.0000,-0.1829
1595877733,-0.0681,-0.9904,-0.0296,-0.3049,-0.0610,0.0000
1595877733,-0.0679,-0.9897,-0.0273,-0.2439,-0.1220,0.0610
1595877733,-0.0662,-0.9933,-0.0272,-0.3049,-0.0610,-0.1829
1595877733,-0.0694,-0.9923,-0.0260,-0.2439,0.0610,0.0000
1595877733,-0.0693,-0.9921,-0.0250,-0.3049,0.0000,0.1220
1595877733,-0.0679,-0.9924,-0.0262,-0.2439,0.0000,-0.1829
1595877733,-0.0681,-0.9912,-0.0294,-0.3049,0.0000,-0.3049
1595877733,-0.0696,-0.9902,-0.0298,-0.3049,0.0000,0.0000
1595877733,-0.0694,-0.9912,-0.0287,-0.3049,-0.0610,0.1220
1595877733,-0.0681,-0.9900,-0.0299,-0.3049,0.0000,-0.0610
1595877733,-0.0690,-0.9907,-0.0277,-0.2439,0.0000,-0.1220
1595877733,-0.0684,-0.9913,-0.0269,-0.2439,0.0610,-0.0610
1595877733,-0.0687,-0.9915,-0.0275,-0.2439,0.0610,-0.2439
1595877733,-0.0671,-0.9917,-0.0272,-0.3049,0.0000,-0.2439
1595877733,-0.0681,-0.9896,-0.0268,-0.3049,0.0000,0.0610
1595877733,-0.0694,-0.9906,-0.0275,-0.3049,0.0000,0.1220
1595877733,-0.0659,-0.9894,-0.0268,-0.3049,0.0000,-0.0610
1595877733,-0.0662,-0.9897,-0.0297,-0.2439,-0.0610,-0.1829
1595877733,-0.0670,-0.9925,-0.0278,-0.3049,0.0000,-0.1829
1595877733,-0.0676,-0.9929,-0.0255,-0.2439,0.0000,-0.1829
1595877733,-0.0674,-0.9912,-0.0262,-0.2439,-0.0610,-0.0610
1595877733,-0.0685,-0.9911,-0.0259,-0.3659,-0.0610,-0.0610
1595877733,-0.0677,-0.9920,-0.0262,-0.3049,0.0000,-0.1220
1595877733,-0.0658,-0.9912,-0.0261,-0.2439,0.0000,-0.0610
1595877733,-0.0668,-0.9902,-0.0297,-0.3049,-0.0610,0.0000
1595877733,-0.0704,-0.9885,-0.0295,-0.3049,-0.0610,0.0610
1595877733,-0.0696,-0.9909,-0.0278,-0.3049,0.0000,0.0610
1595877733,-0.0679,-0.9908,-0.0255,-0.2439,0.0000,0.0610
1595877733,-0.0682,-0.9916,-0.0266,-0.3049,-0.0610,-0.1220
1595877733,-0.0662,-0.9905,-0.0254,-0.3049,-0.0610,-0.2439
1595877733,-0.0661,-0.9904,-0.0256,-0.3049,0.0000,-0.2439
1595877733,-0.0670,-0.9901,-0.0266,-0.3659,0.0000,0.0000
1595877733,-0.0679,-0.9905,-0.0291,-0.3049,0.0000,0.1220
1595877733,-0.0687,-0.9905,-0.0293,-0.3049,-0.0610,0.0610
1595877733,-0.0681,-0.9918,-0.0268,-0.2439,0.0610,0.0000
1595877733,-0.0698,-0.9916,-0.0262,-0.2439,-0.0610,-0.0610
1595877733,-0.0696,-0.9930,-0.0284,-0.1829,-0.0610,-0.1220
1595877733,-0.0657,-0.9920,-0.0258,-0.3049,0.0000,-0.1220
1595877733,-0.0657,-0.9906,-0.0244,-0.3049,-0.0610,-0.1220
1595877733,-0.0681,-0.9924,-0.0256,-0.2439,-0.0610,-0.0610
1595877733,-0.0669,-0.9917,-0.0265,-0.3049,0.0000,-0.1220
1595877733,-0.0683,-0.9877,-0.0284,-0.3049,-0.0610,-0.0610
1595877733,-0.0687,-0.9897,-0.0270,-0.2439,0.0000,-0.1220
1595877733,-0.0692,-0.9918,-0.0294,-0.3049,0.0000,0.0000
1595877733,-0.0693,-0.9911,-0.0256,-0.3049,0.0000,0.1220
1595877733,-0.0688,-0.9886,-0.0236,-0.3049,-0.0610,0.0610
1595877733,-0.0657,-0.9940,-0.0258,-0.3049,0.0000,-0.1829
1595877733,-0.0648,-0.9893,-0.0286,-0.3049,-0.0610,-0.4268
1595877733,-0.0682,-0.9913,-0.0255,-0.3049,0.0000,-0.1220
1595877733,-0.0690,-0.9904,-0.0259,-0.1220,0.0000,0.1829
1595877733,-0.0669,-0.9928,-0.0262,-0.3049,-0.0610,-0.1829
1595877733,-0.0687,-0.9872,-0.0248,-0.3659,0.0000,-0.1220
1595877733,-0.0664,-0.9888,-0.0278,-0.2439,0.0000,0.1220
1595877733,-0.0620,-0.9904,-0.0254,-0.3049,-0.0610,-0.1829
1595877733,-0.0637,-0.9924,-0.0254,-0.4268,0.0000,-0.5488
1595877733,-0.0713,-0.9903,-0.0291,-0.2439,0.0000,-0.0610
1595877733,-0.0701,-0.9884,-0.0295,-0.1829,0.0000,0.4268
1595877733,-0.0705,-0.9948,-0.0307,-0.1829,0.0000,-0.1220
1595877733,-0.0735,-0.9890,-0.0297,-0.1829,0.0000,-0.0610
1595877733,-0.0706,-0.9912,-0.0268,-0.2439,-0.0610,0.3659
1595877733,-0.0638,-0.9886,-0.0258,-0.3049,-0.0610,-0.4268
1595877733,-0.0634,-0.9946,-0.0238,-0.4268,0.1220,-0.9146
1595877733,-0.0654,-0.9888,-0.0249,-0.3049,0.0000,-0.1829
1595877733,-0.0667,-0.9902,-0.0268,-0.2439,0.0000,0.0000
1595877733,-0.0694,-0.9902,-0.0265,-0.2439,0.0000,-0.1829
1595877733,-0.0677,-0.9897,-0.0273,-0.2439,0.0000,0.1220
1595877733,-0.0699,-0.9924,-0.0300,-0.1829,-0.0610,0.1220
1595877733,-0.0706,-0.9935,-0.0278,-0.2439,0.0000,-0.1220
1595877733,-0.0692,-0.9875,-0.0267,-0.3049,0.0000,0.0610
1595877733,-0.0671,-0.9880,-0.0264,-0.4268,0.0000,0.1220
1595877733,-0.0637,-0.9890,-0.0270,-0.4268,0.0000,-0.1829
1595877733,-0.0637,-0.9888,-0.0292,-0.3659,0.0000,-0.4878
1595877733,-0.0683,-0.9927,-0.0295,-0.3049,-0.0610,-0.3659
1595877733,-0.0707,-0.9909,-0.0291,-0.0610,0.0000,0.0610
1595877733,-0.0724,-0.9883,-0.0259,-0.0610,-0.0610,0.4878
1595877733,-0.0691,-0.9921,-0.0251,-0.1829,0.0000,0.0000
1595877733,-0.0693,-0.9917,-0.0244,-0.4268,0.0000,-0.5488
1595877733,-0.0701,-0.9867,-0.0251,-0.3049,-0.0610,0.1220
1595877733,-0.0632,-0.9896,-0.0258,-0.3049,0.0000,0.0000
1595877733,-0.0649,-0.9883,-0.0307,-0.2439,0.0000,-0.6707
1595877733,-0.0717,-0.9908,-0.0275,-0.3049,0.0000,0.1829
1595877733,-0.0711,-0.9876,-0.0302,-0.1220,0.0000,0.6707
1595877733,-0.0698,-0.9907,-0.0273,-0.1220,0.0610,-0.1829
1595877734,-0.0707,-0.9937,-0.0256,-0.2439,0.0000,-0.3049
1595877734,-0.0696,-0.9908,-0.0248,-0.3049,-0.0610,-0.0610
1595877734,-0.0660,-0.9888,-0.0247,-0.3049,-0.0610,-0.0610
1595877734,-0.0624,-0.9907,-0.0257,-0.3049,0.0000,-0.3049
1595877734,-0.0642,-0.9943,-0.0263,-0.4268,0.0610,-0.1829
1595877734,-0.0682,-0.9866,-0.0275,-0.2439,0.0000,0.1829
1595877734,-0.0694,-0.9909,-0.0291,-0.2439,-0.0610,0.1220
1595877734,-0.0690,-0.9901,-0.0316,-0.2439,0.0000,-0.1829
1595877734,-0.0670,-0.9938,-0.0285,-0.3049,0.0000,0.0610
1595877734,-0.0712,-0.9900,-0.0291,-0.3049,-0.0610,-0.0610
1595877734,-0.0728,-0.9863,-0.0242,-0.2439,-0.0610,0.3659
1595877734,-0.0627,-0.9937,-0.0250,-0.2439,0.0610,0.0610
1595877734,-0.0605,-0.9929,-0.0276,-0.4268,0.1220,-1.2805
1595877734,-0.0659,-0.9894,-0.0259,-0.3049,-0.0610,-0.3659
1595877734,-0.0666,-0.9921,-0.0262,-0.2439,0.0000,0.3659
1595877734,-0.0708,-0.9940,-0.0269,-0.2439,0.0610,-0.0610
1595877734,-0.0748,-0.9871,-0.0255,-0.1220,0.0000,0.4878
1595877734,-0.0679,-0.9916,-0.0273,-0.2439,0.0000,0.4268
1595877734,-0.0607,-0.9923,-0.0267,-0.3049,0.0610,-0.7927
1595877734,-0.0657,-0.9908,-0.0293,-0.4268,0.0000,-0.7317
1595877734,-0.0691,-0.9875,-0.0267,-0.3049,0.0000,0.4268
1595877734,-0.0659,-0.9923,-0.0237,-0.2439,-0.0610,0.2439
1595877734,-0.0698,-0.9922,-0.0264,-0.3049,0.0610,-0.4878
1595877734,-0.0751,-0.9882,-0.0285,-0.3049,0.0000,0.2439
1595877734,-0.0689,-0.9927,-0.0288,-0.1220,-0.0610,0.5488
1595877734,-0.0625,-0.9951,-0.0280,-0.3049,-0.0610,-0.6707
1595877734,-0.0673,-0.9911,-0.0251,-0.3659,0.0000,-0.6707
1595877734,-0.0660,-0.9879,-0.0253,-0.3049,-0.0610,0.4268
1595877734,-0.0630,-0.9919,-0.0290,-0.2439,0.0000,-0.2439
1595877734,-0.0658,-0.9916,-0.0287,-0.3049,0.0610,-0.7317
1595877734,-0.0710,-0.9875,-0.0263,-0.2439,-0.0610,0.3659
1595877734,-0.0675,-0.9910,-0.0260,-0.1829,-0.0610,0.4878
1595877734,-0.0646,-0.9950,-0.0269,-0.2439,-0.0610,-0.6098
1595877734,-0.0702,-0.9902,-0.0269,-0.3049,0.0000,-0.3049
1595877734,-0.0758,-0.9875,-0.0260,-0.2439,0.0000,0.7927
1595877734,-0.0673,-0.9916,-0.0286,-0.3049,0.0610,0.0610
1595877734,-0.0637,-0.9919,-0.0287,-0.3049,0.0000,-0.8537
1595877734,-0.0644,-0.9870,-0.0284,-0.3659,-0.0610,-0.3659
1595877734,-0.0657,-0.9904,-0.0251,-0.1220,0.0000,0.1829
1595877734,-0.0683,-0.9932,-0.0289,-0.2439,0.0610,-0.1829
1595877734,-0.0704,-0.9896,-0.0274,-0.3049,0.0610,0.0000
1595877734,-0.0693,-0.9900,-0.0259,-0.2439,0.0610,0.4878
1595877734,-0.0668,-0.9924,-0.0287,-0.3049,0.0000,-0.1220
1595877734,-0.0660,-0.9943,-0.0297,-0.2439,0.0000,-0.6707
1595877734,-0.0688,-0.9881,-0.0280,-0.3049,-0.0610,-0.0610
1595877734,-0.0703,-0.9884,-0.0266,-0.3049,-0.0610,0.2439
1595877734,-0.0665,-0.9903,-0.0256,-0.3049,0.0000,-0.1829
1595877734,-0.0681,-0.9928,-0.0273,-0.2439,0.0000,-0.2439
1595877734,-0.0695,-0.9915,-0.0241,-0.2439,0.0000,0.0610
1595877734,-0.0663,-0.9931,-0.0274,-0.1829,0.0000,-0.1829
1595877734,-0.0646,-0.9930,-0.0309,-0.3049,0.0610,-0.4268
1595877734,-0.0717,-0.9901,-0.0259,-0.3049,-0.0610,0.1829
1595877734,-0.0708,-0.9886,-0.0270,-0.3049,0.0000,0.5488
1595877734,-0.0661,-0.9907,-0.0275,-0.3049,0.0000,-0.2439
1595877734,-0.0671,-0.9906,-0.0244,-0.2439,-0.0610,-0.4878
1595877734,-0.0686,-0.9888,-0.0247,-0.2439,-0.1220,0.1220
1595877734,-0.0653,-0.9932,-0.0269,-0.2439,-0.0610,-0.0610
1595877734,-0.0677,-0.9939,-0.0283,-0.3049,0.0000,-0.4268
1595877734,-0.0693,-0.9915,-0.0261,-0.3049,0.0000,0.0610
1595877734,-0.0661,-0.9896,-0.0287,-0.3049,-0.0610,0.1829
1595877734,-0.0654,-0.9913,-0.0279,-0.3049,-0.0610,-0.3659
1595877734,-0.0694,-0.9866,-0.0280,-0.3659,-0.0610,-0.1220
1595877734,-0.0701,-0.9893,-0.0285,-0.2439,0.0000,0.3659
1595877734,-0.0671,-0.9938,-0.0283,-0.1829,-0.0610,0.0000
1595877734,-0.0699,-0.9901,-0.0246,-0.3049,-0.0610,-0.2439
1595877734,-0.0714,-0.9874,-0.0226,-0.3049,0.0000,0.0610
1595877734,-0.0685,-0.9922,-0.0260,-0.3049,0.0000,0.0610
1595877734,-0.0667,-0.9911,-0.0294,-0.3659,0.0000,-0.5488
1595877734,-0.0668,-0.9888,-0.0283,-0.4268,0.0000,-0.1220
1595877734,-0.0646,-0.9904,-0.0269,-0.3659,-0.0610,0.1829
1595877734,-0.0626,-0.9953,-0.0288,-0.2439,0.0000,-0.5488
1595877734,-0.0731,-0.9887,-0.0262,-0.2439,-0.0610,-0.0610
1595877734,-0.0717,-0.9901,-0.0263,-0.1829,-0.0610,0.7927
1595877734,-0.0648,-0.9947,-0.0286,-0.3049,0.0000,-0.1220
1595877734,-0.0678,-0.9901,-0.0269,-0.3659,0.0610,-0.5488
1595877734,-0.0684,-0.9893,-0.0257,-0.3049,-0.0610,0.3049
1595877734,-0.0643,-0.9905,-0.0253,-0.3049,-0.0610,0.0000
1595877734,-0.0683,-0.9935,-0.0280,-0.2439,0.0610,-0.6098
1595877734,-0.0721,-0.9861,-0.0268,-0.3049,-0.0610,0.3049
1595877734,-0.0626,-0.9933,-0.0256,-0.2439,-0.1220,0.1829
1595877734,-0.0591,-0.9980,-0.0290,-0.3659,0.1220,-1.1585
1595877734,-0.0694,-0.9912,-0.0286,-0.3049,0.0000,-0.5488
1595877734,-0.0701,-0.9871,-0.0253,-0.1829,-0.0610,0.9146
1595877734,-0.0669,-0.9922,-0.0260,-0.2439,0.0610,0.1829
1595877734,-0.0723,-0.9918,-0.0294,-0.3659,0.0000,-0.4878
1595877734,-0.0717,-0.9888,-0.0276,-0.3659,0.0000,0.4268
1595877734,-0.0633,-0.9925,-0.0272,-0.2439,-0.0610,0.1220
1595877734,-0.0637,-0.9929,-0.0284,-0.3049,0.0000,-0.9146
1595877734,-0.0722,-0.9899,-0.0272,-0.2439,-0.1220,-0.0610
1595877734,-0.0675,-0.9879,-0.0246,-0.1829,-0.1220,0.7317
1595877734,-0.0602,-0.9959,-0.0255,-0.2439,0.0000,-0.5488
1595877734,-0.0656,-0.9913,-0.0258,-0.2439,0.0000,-0.9756
1595877734,-0.0726,-0.9894,-0.0247,-0.2439,0.0000,0.3659
1595877734,-0.0671,-0.9896,-0.0248,-0.1829,0.0000,0.5488
1595877734,-0.0656,-0.9919,-0.0299,-0.3049,0.0610,-0.6098
1595877734,-0.0751,-0.9868,-0.0278,-0.2439,0.0000,-0.0610
1595877734,-0.0746,-0.9888,-0.0276,-0.1829,-0.0610,0.8537
1595877734,-0.0653,-0.9940,-0.0273,-0.2439,-0.0610,0.0000
1595877734,-0.0679,-0.9918,-0.0237,-0.3049,0.0610,-0.9146
1595877734,-0.0652,-0.9890,-0.0251,-0.1829,-0.0610,-0.1220
1595877734,-0.0626,-0.9911,-0.0255,-0.3049,-0.0610,-0.0610
1595877734,-0.0635,-0.9934,-0.0265,-0.3659,0.0000,-0.6707
1595877735,-0.0704,-0.9891,-0.0286,-0.3659,-0.0610,0.0610
1595877735,-0.0715,-0.9880,-0.0267,-0.3049,0.0000,0.7927
1595877735,-0.0670,-0.9932,-0.0308,-0.2439,0.0000,-0.4268
1595877735,-0.0732,-0.9929,-0.0280,-0.3049,0.0000,-0.4878
1595877735,-0.0744,-0.9882,-0.0283,-0.2439,-0.0610,0.7317
1595877735,-0.0667,-0.9929,-0.0250,-0.2439,-0.0610,0.1220
1595877735,-0.0662,-0.9899,-0.0265,-0.4268,0.0000,-0.6707
1595877735,-0.0673,-0.9910,-0.0262,-0.3659,0.0000,-0.1829
1595877735,-0.0627,-0.9892,-0.0269,-0.3659,0.0000,-0.1220
1595877735,-0.0623,-0.9944,-0.0264,-0.3049,-0.0610,-0.5488
1595877735,-0.0651,-0.9921,-0.0262,-0.2439,0.0000,-0.3049
1595877735,-0.0682,-0.9911,-0.0244,-0.1829,0.0000,0.3049
1595877735,-0.0717,-0.9911,-0.0251,-0.1220,-0.1220,0.4878
1595877735,-0.0691,-0.9908,-0.0267,-0.2439,-0.0610,0.1220
1595877735,-0.0703,-0.9905,-0.0286,-0.2439,0.0610,-0.1829
1595877735,-0.0681,-0.9878,-0.0269,-0.2439,0.0610,0.0000
1595877735,-0.0690,-0.9902,-0.0267,-0.3049,0.0000,0.0000
1595877735,-0.0692,-0.9905,-0.0289,-0.3049,0.0000,-0.2439
1595877735,-0.0700,-0.9904,-0.0276,-0.1220,0.0000,0.0000
1595877735,-0.0648,-0.9931,-0.0262,-0.1220,0.0000,0.1220
1595877735,-0.0630,-0.9955,-0.0279,-0.2439,0.0000,-0.6098
1595877735,-0.0641,-0.9914,-0.0261,-0.4268,0.0000,-0.6098
1595877735,-0.0685,-0.9905,-0.0257,-0.3049,-0.0610,0.2439
1595877735,-0.0676,-0.9899,-0.0269,-0.3659,0.0610,0.3659
1595877735,-0.0665,-0.9905,-0.0277,-0.3049,0.0000,-0.1220
1595877735,-0.0717,-0.9880,-0.0316,-0.2439,0.0000,0.0000
1595877735,-0.0704,-0.9894,-0.0289,-0.1220,0.0610,0.3659
1595877735,-0.0670,-0.9933,-0.0281,-0.1829,0.0000,-0.3659
1595877735,-0.0685,-0.9918,-0.0274,-0.3659,0.0610,-0.4878
1595877735,-0.0690,-0.9905,-0.0255,-0.3049,-0.0610,0.1829
1595877735,-0.0625,-0.9935,-0.0239,-0.3659,-0.0610,0.0000
1595877735,-0.0637,-0.9927,-0.0264,-0.3659,0.0000,-0.7317
1595877735,-0.0666,-0.9889,-0.0253,-0.3049,0.0000,-0.3659
1595877735,-0.0681,-0.9901,-0.0267,-0.4268,-0.1220,0.1829
1595877735,-0.0677,-0.9928,-0.0293,-0.3659,-0.0610,0.0000
1595877735,-0.0742,-0.9920,-0.0276,-0.2439,-0.0610,0.1829
1595877735,-0.0733,-0.9911,-0.0269,-0.3049,-0.0610,0.6098
1595877735,-0.0688,-0.9927,-0.0259,-0.2439,-0.0610,0.1220
1595877735,-0.0643,-0.9909,-0.0267,-0.2439,0.0000,-0.6707
1595877735,-0.0664,-0.9895,-0.0269,-0.3049,0.0000,-0.4268
1595877735,-0.0675,-0.9919,-0.0284,-0.1829,0.0000,0.0000
1595877735,-0.0649,-0.9941,-0.0273,-0.3049,0.0000,-0.1829
1595877735,-0.0674,-0.9922,-0.0267,-0.3049,-0.0610,-0.1220
1595877735,-0.0676,-0.9917,-0.0269,-0.3049,-0.0610,0.3049
1595877735,-0.0666,-0.9941,-0.0279,-0.3049,-0.0610,0.0610
1595877735,-0.0662,-0.9914,-0.0269,-0.3659,0.0610,-0.3659
1595877735,-0.0712,-0.9872,-0.0275,-0.2439,0.0610,0.0610
1595877735,-0.0721,-0.9888,-0.0278,-0.3049,-0.0610,0.4268
1595877735,-0.0687,-0.9916,-0.0273,-0.3049,0.0000,-0.1829
1595877735,-0.0687,-0.9896,-0.0278,-0.3049,0.0610,-0.4878
1595877735,-0.0679,-0.9916,-0.0286,-0.3049,-0.0610,-0.0610
1595877735,-0.0652,-0.9930,-0.0290,-0.2439,-0.0610,-0.1829
1595877735,-0.0679,-0.9939,-0.0267,-0.3659,0.0000,-0.4268
1595877735,-0.0713,-0.9920,-0.0251,-0.3659,0.0000,0.1220
1595877735,-0.0671,-0.9911,-0.0225,-0.2439,-0.0610,0.3049
1595877735,-0.0643,-0.9918,-0.0262,-0.3049,0.0000,-0.4268
1595877735,-0.0689,-0.9887,-0.0260,-0.3659,0.0610,-0.3659
1595877735,-0.0707,-0.9874,-0.0272,-0.2439,0.0000,0.4878
1595877735,-0.0693,-0.9897,-0.0311,-0.2439,0.0000,0.1829
1595877735,-0.0701,-0.9910,-0.0320,-0.3049,0.0000,-0.4268
1595877735,-0.0726,-0.9913,-0.0279,-0.3049,-0.0610,0.0000
1595877735,-0.0663,-0.9926,-0.0256,-0.3049,-0.0610,0.0610
1595877735,-0.0638,-0.9921,-0.0267,-0.4268,0.0610,-0.5488
1595877735,-0.0640,-0.9899,-0.0235,-0.4268,0.0610,-0.3659
1595877735,-0.0654,-0.9904,-0.0245,-0.2439,0.0000,0.1220
1595877735,-0.0651,-0.9912,-0.0278,-0.3659,0.0610,-0.0610
1595877735,-0.0681,-0.9898,-0.0292,-0.3049,-0.0610,-0.0610
1595877735,-0.0706,-0.9893,-0.0263,-0.1829,-0.0610,0.3049
1595877735,-0.0707,-0.9922,-0.0273,-0.2439,-0.0610,0.1220
1595877735,-0.0684,-0.9906,-0.0293,-0.2439,0.0000,-0.3049
1595877735,-0.0685,-0.9921,-0.0289,-0.3659,0.0000,-0.2439
1595877735,-0.0693,-0.9913,-0.0278,-0.2439,-0.0610,0.0000
1595877735,-0.0654,-0.9921,-0.0293,-0.3049,0.0000,-0.1829
1595877735,-0.0667,-0.9902,-0.0254,-0.3659,0.0000,-0.2439
1595877735,-0.0665,-0.9921,-0.0243,-0.3049,-0.0610,-0.0610
1595877735,-0.0643,-0.9934,-0.0256,-0.2439,-0.0610,-0.1829
1595877735,-0.0685,-0.9916,-0.0270,-0.3659,-0.0610,-0.1220
1595877735,-0.0716,-0.9900,-0.0274,-0.1829,-0.0610,0.2439
1595877735,-0.0697,-0.9903,-0.0275,-0.2439,-0.0610,0.1829
1595877735,-0.0659,-0.9924,-0.0277,-0.3659,0.0610,-0.2439
1595877735,-0.0668,-0.9902,-0.0272,-0.3659,-0.0610,-0.3049
1595877735,-0.0676,-0.9897,-0.0298,-0.3049,-0.0610,-0.0610
1595877735,-0.0655,-0.9907,-0.0276,-0.3659,0.0610,-0.0610
1595877735,-0.0684,-0.9908,-0.0277,-0.3049,0.0000,-0.0610
1595877735,-0.0694,-0.9911,-0.0260,-0.3049,-0.1220,0.1220
1595877735,-0.0656,-0.9930,-0.0269,-0.3049,-0.0610,0.0000
1595877735,-0.0633,-0.9927,-0.0270,-0.3049,0.0000,-0.5488
1595877735,-0.0669,-0.9888,-0.0269,-0.2439,0.0000,-0.2439
1595877735,-0.0671,-0.9897,-0.0265,-0.3049,0.0000,0.1829
1595877735,-0.0692,-0.9911,-0.0283,-0.3049,0.0000,0.1220
1595877735,-0.0705,-0.9897,-0.0283,-0.3049,0.0610,-0.0610
1595877735,-0.0701,-0.9906,-0.0298,-0.3049,0.0000,0.1829
1595877735,-0.0686,-0.9928,-0.0282,-0.3049,0.0000,-0.0610
1595877735,-0.0673,-0.9922,-0.0305,-0.3049,0.0000,-0.3659
1595877735,-0.0684,-0.9899,-0.0274,-0.2439,0.0000,-0.1220
1595877735,-0.0654,-0.9925,-0.0251,-0.3049,-0.0610,0.1220
1595877735,-0.0634,-0.9897,-0.0245,-0.3049,-0.0610,-0.2439
1595877735,-0.0634,-0.9887,-0.0251,-0.3659,0.0000,-0.3049
1595877735,-0.0677,-0.9891,-0.0258,-0.3049,-0.0610,0.1220
1595877735,-0.0675,-0.9915,-0.0289,-0.2439,-0.0610,0.0610
1595877736,-0.0682,-0.9913,-0.0295,-0.1829,0.0000,-0.2439
1595877736,-0.0701,-0.9901,-0.0287,-0.2439,-0.0610,0.0610
1595877736,-0.0689,-0.9901,-0.0291,-0.3049,0.0000,0.2439
1595877736,-0.0660,-0.9897,-0.0266,-0.3049,0.0000,-0.3659
1595877736,-0.0692,-0.9879,-0.0266,-0.3659,0.0000,-0.3659
1595877736,-0.0671,-0.9885,-0.0255,-0.3659,-0.0610,0.0610
1595877736,-0.0635,-0.9928,-0.0248,-0.2439,-0.1220,-0.0610
1595877736,-0.0665,-0.9902,-0.0255,-0.2439,-0.0610,-0.3659
1595877736,-0.0700,-0.9883,-0.0269,-0.1829,0.0000,0.0000
1595877736,-0.0693,-0.9885,-0.0278,-0.2439,-0.0610,0.3659
1595877736,-0.0649,-0.9923,-0.0281,-0.3659,-0.0610,-0.2439
1595877736,-0.0692,-0.9894,-0.0283,-0.3049,0.0000,-0.3659
1595877736,-0.0689,-0.9872,-0.0282,-0.2439,0.0000,0.1829
1595877736,-0.0660,-0.9916,-0.0264,-0.2439,-0.0610,0.0610
1595877736,-0.0665,-0.9920,-0.0276,-0.3049,-0.0610,-0.3659
1595877736,-0.0690,-0.9891,-0.0295,-0.3049,-0.0610,-0.0610
1595877736,-0.0664,-0.9892,-0.0248,-0.2439,0.0000,0.2439
1595877736,-0.0643,-0.9923,-0.0259,-0.2439,0.0000,-0.3049
1595877736,-0.0679,-0.9909,-0.0273,-0.3049,-0.0610,-0.4268
1595877736,-0.0683,-0.9890,-0.0257,-0.1829,0.0000,0.2439
1595877736,-0.0663,-0.9904,-0.0263,-0.3049,0.0000,0.2439
1595877736,-0.0643,-0.9911,-0.0256,-0.3659,0.0610,-0.4268
1595877736,-0.0679,-0.9882,-0.0270,-0.3049,0.0000,-0.1220
1595877736,-0.0678,-0.9894,-0.0295,-0.2439,-0.0610,0.1829
1595877736,-0.0676,-0.9941,-0.0274,-0.2439,-0.0610,-0.1829
1595877736,-0.0707,-0.9937,-0.0281,-0.3049,-0.0610,-0.2439
1595877736,-0.0715,-0.9896,-0.0259,-0.3659,-0.1220,0.2439
1595877736,-0.0667,-0.9938,-0.0272,-0.2439,-0.1220,0.0000
1595877736,-0.0645,-0.9912,-0.0281,-0.2439,-0.0610,-0.6098
1595877736,-0.0689,-0.9897,-0.0272,-0.3659,0.0000,-0.2439
1595877736,-0.0685,-0.9896,-0.0247,-0.1829,-0.0610,0.2439
1595877736,-0.0664,-0.9916,-0.0244,-0.2439,-0.0610,-0.0610
1595877736,-0.0673,-0.9926,-0.0281,-0.2439,-0.0610,-0.2439
1595877736,-0.0712,-0.9907,-0.0294,-0.2439,0.0000,0.2439
1595877736,-0.0687,-0.9921,-0.0286,-0.2439,0.0000,0.1220
1595877736,-0.0666,-0.9915,-0.0293,-0.2439,0.0000,-0.4268
1595877736,-0.0686,-0.9913,-0.0256,-0.2439,0.0000,-0.1829
1595877736,-0.0674,-0.9887,-0.0259,-0.2439,-0.0610,0.3049
1595877736,-0.0645,-0.9926,-0.0269,-0.3049,-0.0610,-0.1829
1595877736,-0.0662,-0.9919,-0.0240,-0.1829,0.0000,-0.4878
1595877736,-0.0685,-0.9900,-0.0267,-0.1829,-0.0610,0.0610
1595877736,-0.0653,-0.9921,-0.0273,-0.2439,-0.0610,0.1220
1595877736,-0.0651,-0.9930,-0.0272,-0.3049,0.0000,-0.3659
1595877736,-0.0698,-0.9904,-0.0269,-0.2439,0.0000,-0.1829
1595877736,-0.0697,-0.9895,-0.0271,-0.1829,-0.0610,0.3659
1595877736,-0.0673,-0.9899,-0.0281,-0.1220,0.0000,0.0000
1595877736,-0.0676,-0.9915,-0.0294,-0.2439,0.0610,-0.3659
1595877736,-0.0699,-0.9897,-0.0285,-0.3049,0.0000,0.0610
1595877736,-0.0660,-0.9911,-0.0282,-0.2439,-0.0610,0.1829
1595877736,-0.0660,-0.9911,-0.0267,-0.3049,0.0000,-0.3049
1595877736,-0.0696,-0.9907,-0.0255,-0.3049,-0.0610,-0.1220
1595877736,-0.0701,-0.9905,-0.0243,-0.1829,-0.1220,0.1829
1595877736,-0.0626,-0.9927,-0.0266,-0.2439,0.0000,-0.1829
1595877736,-0.0644,-0.9932,-0.0284,-0.3049,0.0000,-0.5488
1595877736,-0.0698,-0.9891,-0.0284,-0.3049,0.0000,0.0610
1595877736,-0.0683,-0.9916,-0.0264,-0.2439,-0.0610,0.2439
1595877736,-0.0672,-0.9922,-0.0265,-0.2439,-0.1829,-0.2439
1595877736,-0.0705,-0.9899,-0.0265,-0.2439,-0.0610,-0.1829
1595877736,-0.0720,-0.9882,-0.0254,-0.3049,0.0000,0.1829
1595877736,-0.0659,-0.9908,-0.0284,-0.3659,-0.0610,-0.1829
1595877736,-0.0668,-0.9927,-0.0275,-0.3659,-0.0610,-0.4878
1595877736,-0.0683,-0.9868,-0.0247,-0.3049,-0.0610,0.0000
1595877736,-0.0654,-0.9902,-0.0263,-0.3049,0.0000,0.1220
1595877736,-0.0643,-0.9913,-0.0261,-0.2439,-0.0610,-0.3049
1595877736,-0.0676,-0.9920,-0.0283,-0.2439,0.0000,-0.3049
1595877736,-0.0696,-0.9898,-0.0266,-0.1829,-0.0610,0.1829
1595877736,-0.0680,-0.9911,-0.0265,-0.3049,-0.1220,0.0610
1595877736,-0.0680,-0.9932,-0.0281,-0.2439,0.0000,-0.1829
1595877736,-0.0698,-0.9902,-0.0292,-0.2439,0.0000,0.0610
1595877736,-0.0683,-0.9901,-0.0283,-0.3049,-0.0610,0.1829
1595877736,-0.0653,-0.9917,-0.0259,-0.3659,-0.0610,-0.2439
1595877736,-0.0663,-0.9916,-0.0273,-0.3049,-0.0610,-0.3049
1595877736,-0.0674,-0.9905,-0.0251,-0.1829,0.0000,0.0000
1595877736,-0.0662,-0.9921,-0.0249,-0.2439,0.0000,0.0000
1595877736,-0.0670,-0.9922,-0.0267,-0.2439,0.0000,-0.2439
1595877736,-0.0703,-0.9897,-0.0273,-0.2439,0.0000,-0.0610
1595877736,-0.0700,-0.9907,-0.0269,-0.1220,-0.0610,0.1829
1595877736,-0.0675,-0.9915,-0.0277,-0.2439,0.0000,-0.1829
1595877736,-0.0690,-0.9913,-0.0285,-0.3659,0.0610,-0.3049
1595877736,-0.0699,-0.9905,-0.0269,-0.3049,-0.0610,0.1829
1595877736,-0.0683,-0.9919,-0.0255,-0.2439,0.0000,0.1220
1595877736,-0.0687,-0.9922,-0.0247,-0.3049,0.0000,-0.2439
1595877736,-0.0668,-0.9911,-0.0261,-0.2439,-0.0610,-0.2439
1595877736,-0.0677,-0.9898,-0.0272,-0.3049,-0.1220,-0.0610
1595877736,-0.0653,-0.9917,-0.0272,-0.4268,-0.0610,-0.1829
1595877736,-0.0692,-0.9896,-0.0274,-0.4268,0.0000,-0.1829
1595877736,-0.0690,-0.9878,-0.0287,-0.3049,-0.0610,0.1829
1595877736,-0.0682,-0.9918,-0.0281,-0.2439,0.0000,0.1220
1595877736,-0.0665,-0.9952,-0.0252,-0.2439,0.0000,-0.3659
1595877736,-0.4568,-1.0080,-0.1025,-0.3049,0.0000,-0.0610
1595877736,-0.8773,-0.6771,-0.3098,0.9146,0.7927,-0.9146
1595877736,0.8778,-0.8952,0.3137,2.0122,-9.8780,-29.8780
1595877736,0.5790,-1.1486,-0.0024,14.3293,-13.2927,-154.1463
1595877736,-0.1366,-1.0201,-0.0499,4.9390,4.5122,-88.7805
1595877736,0.1996,-1.5341,-0.0995,-10.0610,0.2439,44.2073
1595877736,-0.0908,-1.6039,-0.0197,-20.9146,-7.5000,79.8781
1595877736,-0.4342,-1.0593,-0.0182,-0.4878,-25.4268,249.0244
1595877736,-0.6794,-1.5928,0.3337,31.6463,-44.6341,365.8537
1595877736,-0.9379,-1.9207,0.6288,22.5000,-56.5854,389.6342
1595877736,-0.7875,-1.7779,0.5004,37.2561,-71.2805,379.6951
1595877736,-0.4448,-1.7082,0.2849,68.7195,-79.9390,279.8781
1595877736,-0.3624,-1.6312,0.0558,95.8537,-82.1341,225.0610
1595877736,-0.1741,-1.5004,-0.1161,125.7317,-76.5244,222.1951
1595877737,-0.0874,-1.4410,-0.1425,159.4512,-57.8049,172.7439
1595877737,-0.3206,-1.2433,0.0404,188.9025,-30.3049,130.0000
1595877737,-0.4944,-0.9566,0.1733,212.9878,-2.0122,111.9512
1595877737,-0.5892,-0.6406,0.0867,224.9390,20.3659,105.4268
1595877737,-0.6755,-0.3026,-0.0541,222.5610,35.4268,128.5366
1595877737,-0.6559,-0.1960,-0.0827,206.7073,46.7073,158.7805
1595877737,-0.6876,-0.2040,-0.0061,178.9634,57.9268,179.2073
1595877737,-0.6050,-0.3010,0.0781,148.4146,68.7195,201.3415
1595877737,-0.4739,-0.4891,0.0581,118.1707,77.6220,206.7073
1595877737,-0.5917,-0.4930,0.0329,91.3415,85.0000,201.1585
1595877737,-0.7629,-0.4037,0.0690,71.8902,88.4146,189.1463
1595877737,-0.9666,-0.3117,0.0932,53.2927,82.0122,161.3415
1595877737,-1.1593,-0.2145,0.0443,33.1707,62.6220,143.4756
1595877737,-1.1601,-0.2138,-0.0057,13.5366,32.0732,129.3902
1595877737,-1.1054,-0.2966,0.0150,-4.7561,-3.2927,109.8781
1595877737,-1.0098,-0.3773,0.1207,-19.5732,-36.6463,92.8049
1595877737,-0.8494,-0.4476,0.2154,-30.9146,-65.0610,82.5610
1595877737,-0.7084,-0.4925,0.2059,-40.9756,-85.9756,79.6341
1595877737,-0.6036,-0.4769,0.1788,-48.7195,-96.5854,76.5244
1595877737,-0.5650,-0.4693,0.2010,-53.4756,-97.0732,65.1829
1595877737,-0.6048,-0.3839,0.2439,-55.5488,-89.5732,50.9756
1595877737,-0.6561,-0.3255,0.2111,-54.9390,-78.7195,46.2195
1595877737,-0.7056,-0.2962,0.1626,-55.2439,-68.9024,55.4878
1595877737,-0.7382,-0.3041,0.1648,-55.4878,-61.2195,67.4390
1595877737,-0.7354,-0.3116,0.1805,-55.5488,-55.3659,71.4024
1595877737,-0.7275,-0.3439,0.1877,-55.7317,-51.8902,73.6585
1595877737,-0.7599,-0.3278,0.1898,-57.2561,-50.3659,79.0854
1595877737,-0.7885,-0.3430,0.2392,-59.8781,-50.4268,81.1585
1595877737,-0.8172,-0.3782,0.2587,-64.9390,-52.3781,76.1585
1595877737,-0.8505,-0.3619,0.2551,-70.9146,-56.2195,69.1463
1595877737,-0.8559,-0.3232,0.2407,-76.9512,-62.1341,59.4512
1595877737,-0.8743,-0.2825,0.2247,-84.4512,-69.3902,47.9268
1595877737,-0.8684,-0.2695,0.2028,-93.2317,-76.7073,37.8049
1595877737,-0.8290,-0.2929,0.1818,-102.8659,-84.0244,32.1951
1595877737,-0.8287,-0.3203,0.1806,-112.0122,-90.1220,34.7561
1595877737,-0.7982,-0.3571,0.2048,-119.7561,-93.3537,41.0366
1595877737,-0.7156,-0.3891,0.2323,-125.0000,-93.2317,37.9878
1595877737,-0.6614,-0.4516,0.2200,-128.1707,-89.8171,36.0976
1595877737,-0.6572,-0.4525,0.1984,-129.6951,-82.9878,41.4024
1595877737,-0.6755,-0.4588,0.1934,-128.2927,-73.7805,43.9024
1595877737,-0.7318,-0.4622,0.1868,-126.5854,-65.1220,41.4634
1595877737,-0.7831,-0.4335,0.1872,-124.7561,-58.7805,36.2805
1595877737,-0.7913,-0.4548,0.1931,-123.9634,-56.5244,28.8415
1595877737,-0.8273,-0.4503,0.1924,-125.9146,-57.9878,29.3293
1595877737,-0.8605,-0.4470,0.2009,-128.3537,-61.5244,37.7439
1595877737,-0.8470,-0.5118,0.2335,-131.1585,-65.6707,42.9878
1595877737,-0.8393,-0.5500,0.2675,-134.0854,-69.5732,44.6341
1595877737,-0.8342,-0.5604,0.3036,-134.0244,-72.3781,45.3049
1595877737,-0.8422,-0.5949,0.3245,-131.6463,-73.6585,43.3537
1595877737,-0.8332,-0.5901,0.3167,-127.3781,-73.7805,42.7439
1595877737,-0.8146,-0.5891,0.2923,-119.9390,-72.9878,42.3171
1595877737,-0.8167,-0.5794,0.2748,-111.4634,-71.1585,41.0976
1595877737,-0.8235,-0.5016,0.2662,-102.2561,-68.1707,39.0244
1595877737,-0.8599,-0.3987,0.2490,-93.8415,-64.6341,38.7195
1595877737,-0.8902,-0.3517,0.2666,-89.8171,-61.8902,44.2073
1595877737,-0.8962,-0.3735,0.3181,-91.5244,-60.2439,50.3049
1595877737,-0.9012,-0.4215,0.3713,-96.2805,-59.0244,52.1341
1595877737,-0.8908,-0.4725,0.3932,-101.9512,-58.5366,52.9268
1595877737,-0.8865,-0.4788,0.3647,-107.0122,-59.6341,51.7073
1595877737,-0.8893,-0.4687,0.3168,-110.1829,-62.6220,50.1220
1595877737,-0.8860,-0.4200,0.2557,-112.1951,-67.3171,48.2927
1595877737,-0.8376,-0.3994,0.2152,-112.3171,-73.2927,46.4634
1595877737,-0.7513,-0.4587,0.2183,-112.5000,-78.5366,40.2439
1595877737,-0.7284,-0.4782,0.2288,-112.0732,-81.3415,34.0854
1595877737,-0.7391,-0.5226,0.2264,-110.0000,-81.7683,32.3780
1595877737,-0.7192,-0.4845,0.2250,-108.4756,-81.0976,28.7195
1595877737,-0.7209,-0.4683,0.2355,-106.7073,-80.4878,25.4878
1595877737,-0.7296,-0.5018,0.2623,-107.9268,-79.1463,22.5610
1595877737,-0.7488,-0.5208,0.2913,-110.3659,-77.1951,18.2927
1595877737,-0.7623,-0.5565,0.3223,-112.1951,-75.4878,13.9024
1595877737,-0.7858,-0.5827,0.3291,-114.0244,-74.6951,9.1463
1595877737,-0.8229,-0.5560,0.2929,-114.6341,-75.6098,7.8049
1595877737,-0.8415,-0.5229,0.2713,-113.8415,-78.7195,11.1585
1595877737,-0.8539,-0.5537,0.2935,-112.8049,-83.2317,16.1585
1595877737,-0.8905,-0.5867,0.3116,-110.8537,-87.8659,23.2927
1595877737,-0.8322,-0.5580,0.3115,-105.8537,-91.8902,29.5122
1595877737,-0.7129,-0.6326,0.2604,-98.5976,-94.5122,28.9024
1595877737,-0.6919,-0.6792,0.2826,-92.0122,-93.5366,29.4512
1595877737,-0.7168,-0.6339,0.3768,-82.4390,-87.5610,29.3902
1595877737,-0.7386,-0.6215,0.4302,-71.9512,-78.8415,24.2683
1595877737,-0.7161,-0.5879,0.4343,-64.3902,-70.0000,20.1829
1595877737,-0.7155,-0.5285,0.4299,-58.7805,-61.4634,17.9878
1595877737,-0.7368,-0.4892,0.4396,-55.7317,-52.5000,18.5976
1595877737,-0.7482,-0.4622,0.4393,-55.6098,-43.7195,17.5610
1595877737,-0.7684,-0.4328,0.4132,-57.0122,-36.3415,16.2195
1595877737,-0.7975,-0.3899,0.3798,-59.1463,-31.0366,18.5366
1595877737,-0.8017,-0.3735,0.3506,-61.7683,-28.3537,23.0488
1595877737,-0.8235,-0.3522,0.3206,-64.6341,-27.8049,30.3049
1595877737,-0.8237,-0.3532,0.3195,-66.1585,-28.1707,36.8902
1595877737,-0.8010,-0.3843,0.3360,-66.7683,-28.9024,37.8049
1595877737,-0.7550,-0.4266,0.3436,-66.7683,-30.3049,38.2317
1595877737,-0.7303,-0.4619,0.3533,-66.0366,-31.6463,37.6220
1595877737,-0.7228,-0.4625,0.3542,-64.3293,-32.5000,35.9756
1595877737,-0.7322,-0.4116,0.3368,-62.0732,-33.3537,33.5976
1595877737,-0.7518,-0.3580,0.3083,-59.6341,-34.5122,31.6463
1595877737,-0.7501,-0.3386,0.2725,-58.6585,-36.4634,29.6341
1595877737,-0.7571,-0.2914,0.2372,-59.1463,-39.0854,29.0244
1595877737,-0.7692,-0.2642,0.2250,-60.0610,-42.2561,31.2195
1595877737,-0.7558,-0.2722,0.2329,-62.9268,-45.3659,31.8902
1595877737,-0.7435,-0.2977,0.2538,-67.1341,-47.8049,30.2439
1595877737,-0.7119,-0.3541,0.2763,-72.0732,-49.0244,29.2073
1595877738,-0.6993,-0.4437,0.2631,-77.8049,-49.2073,28.2317
1595877738,-0.6990,-0.4701,0.2711,-82.8049,-48.2927,27.8659
1595877738,-0.6954,-0.5078,0.3181,-85.6707,-46.0366,22.9878
1595877738,-0.6955,-0.5742,0.3295,-88.0488,-42.3171,17.8049
1595877738,-0.6804,-0.6403,0.2984,-89.2073,-38.1098,16.3415
1595877738,-0.6606,-0.6804,0.2435,-87.4390,-33.4756,17.2561
1595877738,-0.6685,-0.6646,0.1995,-82.1951,-27.9268,16.3415
1595877738,-0.6884,-0.6155,0.1700,-74.1463,-21.8902,14.8171
1595877738,-0.7126,-0.6025,0.1354,-66.0976,-16.2195,12.8659
1595877738,-0.7527,-0.5964,0.1180,-59.3902,-11.4634,11.5244
1595877738,-0.7696,-0.6188,0.1035,-54.2683,-8.1098,10.1220
1595877738,-0.7570,-0.6783,0.0836,-51.5854,-6.8293,7.7439
1595877738,-0.7883,-0.7029,0.0698,-51.0366,-7.0122,4.8171
1595877738,-0.8202,-0.6958,0.0906,-51.2805,-7.8049,1.7683
1595877738,-0.8055,-0.7308,0.1229,-53.1707,-9.3293,-5.1220
1595877738,-0.8153,-0.7607,0.1254,-57.1341,-11.3415,-11.6463
1595877738,-0.8250,-0.8003,0.1411,-61.2805,-13.2317,-14.8780
1595877738,-0.8036,-0.8704,0.1494,-65.1220,-15.0000,-20.0000
1595877738,-0.7662,-0.9315,0.1434,-67.9268,-16.4024,-26.6463
1595877738,-0.7581,-0.9420,0.1490,-68.1707,-16.2805,-33.6585
1595877738,-0.7587,-0.9413,0.1589,-65.9146,-14.3902,-37.8659
1595877738,-0.7576,-0.9600,0.1609,-62.3781,-11.3415,-38.5976
1595877738,-0.7654,-0.9838,0.1476,-57.1341,-7.2561,-35.6707
1595877738,-0.7422,-1.0237,0.1202,-49.3293,-2.2561,-31.0366
1595877738,-0.7347,-1.0613,0.0984,-38.7805,3.1707,-26.3415
1595877738,-0.7581,-1.0790,0.0934,-25.6098,9.3293,-21.3415
1595877738,-0.7652,-1.0477,0.0849,-10.7317,15.3049,-18.6585
1595877738,-0.7709,-1.0165,0.0912,3.9024,20.1829,-18.1707
1595877738,-0.7742,-0.9897,0.1357,15.6098,24.3902,-18.9024
1595877738,-0.7916,-0.9730,0.1898,24.3902,28.5976,-20.7317
1595877738,-0.7828,-0.9673,0.2210,30.4878,32.6220,-20.4878
1595877738,-0.7718,-0.9558,0.2100,34.8780,35.7927,-19.0854
1595877738,-0.7653,-0.9280,0.1783,37.9878,37.6829,-17.0732
1595877738,-0.7562,-0.8740,0.1562,40.6098,37.8659,-16.1585
1595877738,-0.7419,-0.8035,0.1250,43.1098,36.5244,-15.8537
1595877738,-0.7148,-0.7451,0.0895,44.8171,33.8415,-14.6341
1595877738,-0.6773,-0.7258,0.0645,45.6707,30.4268,-12.8659
1595877738,-0.6398,-0.6923,0.0334,46.3415,26.6463,-10.8537
1595877738,-0.6189,-0.6751,0.0308,47.5610,23.3537,-8.9024
1595877738,-0.6006,-0.6708,0.0468,48.2317,20.7317,-9.3293
1595877738,-0.5679,-0.6769,0.0219,48.4756,18.1098,-10.4268
1595877738,-0.5553,-0.6824,0.0059,47.8659,14.9390,-10.4878
1595877738,-0.5670,-0.6437,0.0347,47.0122,12.1341,-12.1951
1595877738,-0.5728,-0.6180,0.0571,45.7927,9.9390,-15.8537
1595877738,-0.5664,-0.5863,0.0396,43.1707,7.9878,-19.2073
1595877738,-0.5642,-0.5700,0.0444,39.8780,6.4634,-20.0610
1595877738,-0.6043,-0.5843,0.1114,36.2805,6.7073,-21.4634
1595877738,-0.6285,-0.6334,0.2004,33.1707,8.4756,-22.8659
1595877738,-0.6234,-0.7357,0.2319,31.7073,10.0610,-23.2317
1595877738,-0.6250,-0.7681,0.2370,32.8049,11.1585,-21.4634
1595877738,-0.6302,-0.7770,0.2200,38.4756,11.7683,-19.1463
1595877738,-0.6364,-0.7614,0.1913,45.9756,11.2195,-17.3171
1595877738,-0.6245,-0.7273,0.1947,54.8171,9.6951,-13.2317
1595877738,-0.5995,-0.7141,0.2191,63.7195,8.4756,-9.5122
1595877738,-0.5811,-0.6725,0.2374,71.2195,8.7805,-7.7439
1595877738,-0.5748,-0.6275,0.2571,77.0732,10.6098,-5.0610
1595877738,-0.5693,-0.5839,0.2841,79.5732,13.9024,-4.3293
1595877738,-0.5870,-0.5385,0.2936,78.5976,17.8659,-5.3659
1595877738,-0.5961,-0.4774,0.2874,74.0854,21.1585,-4.2683
1595877738,-0.5663,-0.4507,0.2916,66.6463,23.4756,-4.0854
1595877738,-0.5520,-0.4470,0.2946,56.8293,25.3659,-5.6098
1595877738,-0.5483,-0.4526,0.3081,46.5244,27.0122,-4.2683
1595877738,-0.5427,-0.5018,0.3280,36.7073,28.7195,-3.9024
1595877738,-0.5704,-0.5287,0.3342,28.4756,29.6341,-3.8415
1595877738,-0.5999,-0.5519,0.3402,23.6585,29.5732,-3.7805
1595877738,-0.6069,-0.5677,0.3425,21.0976,27.3780,-6.0366
1595877738,-0.6164,-0.5637,0.3205,20.6707,23.2317,-7.8659
1595877738,-0.6129,-0.5593,0.2947,22.0122,17.6220,-7.7439
1595877738,-0.6180,-0.5280,0.2906,24.4512,12.0122,-8.9024
1595877738,-0.6200,-0.5099,0.3043,27.7439,7.5610,-9.9390
1595877738,-0.6099,-0.5142,0.3184,30.3659,4.3902,-9.8780
1595877738,-0.6077,-0.5142,0.3469,31.8902,2.6220,-8.5366
1595877738,-0.5948,-0.5254,0.3901,32.4390,2.9878,-8.0488
1595877738,-0.5867,-0.5465,0.4034,31.3415,4.6951,-8.7195
1595877738,-0.6138,-0.5475,0.4285,29.2683,7.3780,-7.6829
1595877738,-0.6218,-0.5629,0.4639,27.2561,10.9146,-6.9512
1595877738,-0.6075,-0.6238,0.4570,25.4268,14.5122,-6.4634
