time,ax,ay,az,gx,gy,gz
1595877718,0.2382,-0.9150,0.1859,-0.3049,-0.4268,-0.3659
1595877718,0.2427,-0.9233,0.1884,-0.2439,-0.7317,-0.3049
1595877718,0.2432,-0.9219,0.1906,-0.1220,-0.9146,0.0000
1595877718,0.2446,-0.9222,0.1888,-0.1829,-0.7317,0.1220
1595877718,0.2470,-0.9247,0.1887,-0.2439,-0.6707,0.1829
1595877718,0.2488,-0.9257,0.1855,-0.0610,-0.6707,0.1829
1595877718,0.2511,-0.9256,0.1814,-0.1220,-0.9146,0.1220
1595877718,0.2542,-0.9265,0.1825,-0.1220,-1.1585,-0.1220
1595877718,0.2536,-0.9256,0.1832,0.0610,-1.3415,-0.1829
1595877718,0.2535,-0.9232,0.1851,0.1220,-1.2195,-0.3659
1595877718,0.2499,-0.9240,0.1851,0.0000,-1.0366,-0.5488
1595877718,0.2485,-0.9229,0.1866,-0.1220,-0.9756,-0.6098
1595877718,0.2491,-0.9208,0.1859,-0.0610,-0.9146,-0.7317
1595877718,0.2450,-0.9250,0.1842,-0.0610,-0.8537,-0.7317
1595877718,0.2419,-0.9263,0.1858,0.0000,-0.7317,-0.5488
1595877718,0.2430,-0.9231,0.1857,0.1220,-0.8537,-0.3659
1595877718,0.2410,-0.9225,0.1847,0.1220,-1.0976,-0.3049
1595877718,0.2407,-0.9194,0.1870,0.0610,-1.2195,-0.3049
1595877718,0.2430,-0.9185,0.1857,0.0000,-1.4024,-0.4268
1595877718,0.2430,-0.9184,0.1826,0.1220,-1.5244,-0.3659
1595877718,0.2420,-0.9210,0.1839,0.0000,-1.5854,-0.3049
1595877718,0.2412,-0.9230,0.1865,0.0000,-1.7073,-0.3049
1595877718,0.2432,-0.9227,0.1865,0.0610,-1.7683,-0.3049
1595877718,0.2455,-0.9231,0.1848,-0.0610,-1.6463,-0.1220
1595877718,0.2472,-0.9232,0.1871,-0.1220,-1.7073,0.0000
1595877718,0.2500,-0.9229,0.1862,-0.1829,-1.7683,0.0610
1595877718,0.2498,-0.9216,0.1866,-0.1220,-1.8293,0.1829
1595877718,0.2504,-0.9238,0.1895,-0.2439,-2.0122,0.1829
1595877718,0.2544,-0.9213,0.1854,-0.1829,-2.1951,0.1220
1595877718,0.2542,-0.9236,0.1835,0.0610,-2.1341,0.0610
1595877718,0.2496,-0.9255,0.1859,0.0000,-1.8293,0.0000
1595877718,0.2489,-0.9237,0.1867,-0.1220,-1.7073,-0.1220
1595877718,0.2501,-0.9219,0.1870,-0.1220,-1.6463,-0.2439
1595877718,0.2479,-0.9232,0.1866,-0.0610,-1.5854,-0.2439
1595877718,0.2468,-0.9227,0.1855,-0.1829,-1.3415,-0.2439
1595877718,0.2452,-0.9207,0.1859,-0.0610,-1.2805,-0.1829
1595877718,0.2459,-0.9210,0.1856,0.0000,-1.2195,-0.1829
1595877718,0.2459,-0.9196,0.1855,-0.1829,-1.2805,-0.2439
1595877718,0.2453,-0.9206,0.1857,-0.1220,-1.1585,-0.1829
1595877718,0.2462,-0.9218,0.1856,-0.0610,-1.0976,-0.1829
1595877718,0.2460,-0.9216,0.1866,-0.2439,-1.2195,-0.1829
1595877718,0.2448,-0.9227,0.1857,-0.3049,-1.3415,-0.1829
1595877718,0.2479,-0.9219,0.1883,-0.3049,-1.4634,-0.1220
1595877718,0.2484,-0.9230,0.1869,-0.4268,-1.4024,-0.1220
1595877718,0.2518,-0.9229,0.1874,-0.3659,-1.4024,-0.1220
1595877718,0.2521,-0.9222,0.1866,-0.4268,-1.3415,-0.1220
1595877718,0.2513,-0.9225,0.1836,-0.4878,-1.3415,-0.0610
1595877718,0.2521,-0.9229,0.1869,-0.4268,-1.2805,0.0000
1595877718,0.2518,-0.9209,0.1866,-0.4268,-1.2805,-0.0610
1595877718,0.2529,-0.9258,0.1874,-0.4268,-1.3415,-0.0610
1595877718,0.2568,-0.9235,0.1905,-0.3659,-1.4634,0.0000
1595877718,0.2557,-0.9238,0.1893,-0.1829,-1.3415,-0.0610
1595877718,0.2542,-0.9243,0.1884,-0.2439,-1.0366,-0.1220
1595877718,0.2526,-0.9247,0.1880,-0.1220,-0.8537,-0.1220
1595877718,0.2527,-0.9227,0.1870,-0.0610,-0.9756,-0.2439
1595877719,0.2519,-0.9221,0.1907,0.0000,-0.9146,-0.3659
1595877719,0.2478,-0.9186,0.1901,-0.0610,-0.7927,-0.4268
1595877719,0.2498,-0.9180,0.1866,-0.0610,-0.6098,-0.4878
1595877719,0.2510,-0.9202,0.1851,-0.0610,-0.6707,-0.5488
1595877719,0.2488,-0.9235,0.1857,0.1220,-0.6098,-0.6098
1595877719,0.2449,-0.9246,0.1875,0.0610,-0.4268,-0.5488
1595877719,0.2420,-0.9280,0.1864,-0.1829,-0.3659,-0.4268
1595877719,0.2386,-0.9265,0.1825,-0.5488,-0.4878,-0.5488
1595877719,0.2390,-0.9292,0.1759,-0.9146,-0.5488,-0.7927
1595877719,0.2475,-0.9284,0.1772,-0.8537,-0.9756,-1.0976
1595877719,0.2521,-0.9305,0.1782,-0.1220,-1.6463,-0.7927
1595877719,0.2468,-0.9299,0.1711,0.0000,-1.5244,-0.2439
1595877719,0.2354,-0.9323,0.1675,-0.3049,-1.0976,0.0000
1595877719,0.2335,-0.9343,0.1696,-0.5488,-1.0366,0.1829
1595877719,0.2308,-0.9378,0.1746,-0.5488,-2.0122,0.3049
1595877719,0.2316,-0.9420,0.1754,-0.9756,-3.6585,0.4268
1595877719,0.2213,-0.9438,0.1744,-0.7317,-5.2439,0.6098
1595877719,0.2101,-0.9413,0.1690,-1.0366,-6.7073,0.6098
1595877719,0.2061,-0.9283,0.1550,-1.4024,-8.8415,0.6098
1595877719,0.2092,-0.9251,0.1473,-1.5244,-12.0122,0.1220
1595877719,0.2203,-0.9272,0.1514,-1.1585,-15.3049,0.1220
1595877719,0.2196,-0.9204,0.1525,-1.1585,-17.1951,1.0366
1595877719,0.2162,-0.9154,0.1652,-2.0122,-17.9878,2.1341
1595877719,0.2157,-0.9279,0.1813,-2.3780,-18.9024,3.2927
1595877719,0.2039,-0.9390,0.1813,-1.8902,-20.4268,4.2073
1595877719,0.1873,-0.9337,0.1714,-2.0122,-23.0488,4.8780
1595877719,0.1511,-0.9063,0.1529,-2.2561,-27.5610,5.4878
1595877719,0.0869,-0.8945,0.1315,-4.2073,-35.0610,5.6707
1595877719,0.0267,-0.9186,0.1562,-7.0732,-47.4390,6.8902
1595877719,-0.0054,-0.9394,0.2215,-8.5976,-63.4146,9.6341
1595877719,-0.0188,-0.9207,0.2594,-8.8415,-78.5366,13.4146
1595877719,0.0147,-0.9177,0.2958,-8.4146,-92.8659,16.5854
1595877719,0.0327,-0.9086,0.2834,-5.3049,-104.1463,20.4268
1595877719,-0.0281,-0.9474,0.3411,-2.0122,-105.5488,25.7317
1595877719,-0.0982,-1.0026,0.4210,0.8537,-106.7683,30.6098
1595877719,-0.1123,-1.0139,0.4461,7.2561,-116.9512,33.4756
1595877719,-0.1156,-1.0023,0.4852,13.6585,-135.1829,36.6463
1595877719,-0.1353,-0.9932,0.5349,18.6585,-152.5000,41.6463
1595877719,-0.1196,-1.0226,0.5910,24.4512,-162.5000,47.9878
1595877719,-0.0750,-1.0788,0.6896,29.9390,-167.6829,53.5366
1595877719,-0.0369,-1.1112,0.7723,36.7073,-169.0244,57.3781
1595877719,0.0062,-1.1378,0.8973,46.6463,-169.2073,60.5488
1595877719,0.0256,-1.1487,1.0399,56.2805,-167.2561,63.5976
1595877719,0.0247,-1.1497,1.1017,66.8902,-163.9024,66.0366
1595877719,0.0831,-1.1859,1.1572,77.0122,-165.1219,66.7683
1595877719,0.1678,-1.2166,1.2047,87.0732,-167.5000,68.0488
1595877719,0.2072,-1.2523,1.2200,98.2317,-165.9756,68.8415
1595877719,0.2001,-1.3044,1.2256,108.5366,-161.2195,68.5976
1595877719,0.1497,-1.3348,1.1733,120.1220,-154.7561,68.2317
1595877719,0.1201,-1.3594,1.1113,133.2317,-153.1707,67.3171
1595877719,0.1289,-1.3799,1.0750,146.1585,-159.2683,65.5488
1595877719,0.1584,-1.4135,1.0676,157.0122,-172.5000,62.3781
1595877719,0.2173,-1.4402,1.0255,167.2561,-191.0366,58.4756
1595877719,0.2781,-1.4641,0.9447,176.4025,-211.0976,52.1951
1595877719,0.2863,-1.4776,0.8306,184.2683,-227.9878,42.9878
1595877719,0.2774,-1.4732,0.7020,188.5366,-242.5000,32.6829
1595877719,0.2962,-1.4778,0.6002,191.6463,-258.7805,21.6463
1595877719,0.3019,-1.4847,0.5032,193.2927,-277.1342,8.1098
1595877719,0.3248,-1.4914,0.4293,192.5610,-295.2439,-6.1585
1595877719,0.3940,-1.4951,0.3562,189.6342,-310.8537,-20.6707
1595877719,0.4651,-1.4824,0.2480,187.0732,-321.7683,-36.0976
1595877719,0.5508,-1.4542,0.1696,182.1951,-327.0732,-52.4390
1595877719,0.5641,-1.3704,0.1015,175.5488,-322.8049,-67.8659
1595877719,0.5105,-1.2688,0.0456,168.1098,-313.5976,-82.8049
1595877719,0.4740,-1.1917,0.0060,158.1707,-304.8781,-96.9512
1595877719,0.4407,-1.1375,0.0116,147.3781,-296.5854,-110.4268
1595877719,0.4050,-1.1042,0.0076,137.0732,-292.1951,-122.2561
1595877720,0.4145,-1.0535,-0.0621,125.9146,-292.6219,-133.1707
1595877720,0.4644,-0.9539,-0.0611,112.2561,-293.4756,-144.5122
1595877720,0.5513,-0.8953,-0.0075,99.4512,-287.9268,-152.6829
1595877720,0.6146,-0.8903,0.0089,89.6341,-270.8537,-157.3171
1595877720,0.5950,-0.8295,-0.0137,81.0366,-244.2683,-158.9024
1595877720,0.5449,-0.7310,-0.0314,73.1098,-216.3415,-159.0244
1595877720,0.4861,-0.6782,-0.0867,64.5732,-193.9025,-158.1098
1595877720,0.4517,-0.6564,-0.1561,55.6707,-179.3902,-157.4390
1595877720,0.4565,-0.6429,-0.1961,48.9024,-169.4512,-156.1585
1595877720,0.4984,-0.6264,-0.2224,41.8293,-160.6098,-152.4390
1595877720,0.5153,-0.5845,-0.2137,34.6341,-149.6342,-147.6219
1595877720,0.5231,-0.5295,-0.2062,27.6829,-136.8293,-142.6829
1595877720,0.5588,-0.4697,-0.2438,20.9146,-124.2073,-137.2561
1595877720,0.5883,-0.3641,-0.3640,10.0000,-98.7195,-125.0610
1595877720,0.7634,-0.3467,-0.7455,-80.7317,-88.5976,-62.8049
1595877720,0.7921,-0.3885,-0.6751,-115.7317,-64.1463,-40.4878
1595877720,0.7890,-0.4276,-0.6495,-121.7683,-55.6098,-34.7561
1595877720,0.8276,-0.4670,-0.6709,-127.9878,-48.4756,-28.9634
1595877720,0.9343,-0.5049,-0.7136,-142.4390,-34.8780,-17.3171
1595877720,0.9456,-0.5271,-0.7402,-149.8781,-23.1098,-14.0854
1595877720,0.9490,-0.5696,-0.7601,-156.4634,-8.6585,-11.5854
1595877720,0.9420,-0.6239,-0.7659,-164.2683,6.6463,-9.8171
1595877720,0.9364,-0.6631,-0.7512,-173.1707,20.4878,-8.5366
1595877720,0.9502,-0.6858,-0.7159,-182.0732,33.5976,-8.1707
1595877720,0.9583,-0.7157,-0.6643,-191.4634,45.8537,-9.4512
1595877720,0.9926,-0.7502,-0.6301,-201.0366,51.4024,-12.7439
1595877720,1.0425,-0.7736,-0.6432,-209.0854,52.6829,-19.0854
1595877720,1.0739,-0.7848,-0.6778,-217.7439,56.4634,-26.1585
1595877720,1.0734,-0.8544,-0.5883,-236.3415,89.2073,-39.0854
1595877720,1.0615,-0.9002,-0.4917,-246.0976,110.0000,-46.4634
1595877720,1.0172,-0.9161,-0.4761,-254.4512,134.9390,-66.8902
1595877720,1.0300,-0.9319,-0.4861,-260.3049,141.7073,-88.4146
1595877720,1.0306,-0.9616,-0.4417,-264.0854,135.8537,-98.4146
1595877720,1.0016,-0.9862,-0.3423,-269.5732,126.8902,-108.2317
1595877720,1.0377,-0.9960,-0.1356,-286.1585,93.4756,-136.3415
1595877720,1.0059,-0.9684,-0.1572,-286.7073,92.9268,-142.8659
1595877720,0.9755,-0.9083,-0.1392,-284.5732,99.8781,-146.0976
1595877720,0.9767,-0.8998,-0.0307,-283.2927,109.0244,-147.5610
1595877720,0.9990,-0.9150,0.0944,-283.5976,113.5976,-148.8415
1595877720,0.9955,-0.8652,0.2385,-280.9146,114.1463,-150.6707
1595877720,0.9940,-0.8091,0.3884,-278.5976,113.9024,-153.9024
1595877720,1.0035,-0.7806,0.4685,-275.4268,111.0366,-158.3537
1595877720,0.9765,-0.7496,0.5003,-268.7195,106.4024,-162.3781
1595877720,0.8879,-0.7136,0.5401,-263.2317,105.4878,-165.5488
1595877720,0.7731,-0.7171,0.6257,-259.5732,106.0976,-167.1342
1595877720,0.7104,-0.7365,0.6551,-255.7317,101.8293,-167.3171
1595877720,0.6845,-0.6565,0.6160,-246.5244,91.2195,-167.5000
1595877720,0.6443,-0.5851,0.6608,-233.9025,81.7073,-166.4024
1595877720,0.6285,-0.5878,0.7614,-226.2195,76.8902,-163.1707
1595877720,0.6587,-0.5367,0.9941,-217.9268,72.8049,-159.3293
1595877720,0.7059,-0.4376,1.4025,-169.0244,103.9634,-148.8415
1595877720,0.5899,-0.3538,1.3344,-145.1219,137.9878,-142.3171
1595877720,0.1821,-0.1150,0.8251,-119.8781,192.1342,-131.1585
1595877720,-0.9988,0.1313,-0.1802,-108.2927,193.6585,-124.2683
1595877720,-1.9999,-1.8455,1.5969,-116.7683,168.1707,-117.3171
1595877720,-0.8309,-1.2832,-0.6008,-21.8293,-90.1829,91.6463
1595877720,1.9999,0.6501,0.9509,165.7927,-472.0122,117.6220
1595877720,1.9974,0.7718,0.9933,266.9512,-416.2195,-167.1342
1595877720,0.1796,1.7106,-0.1039,31.2195,-89.8781,-64.7561
1595877720,-0.1198,0.4722,0.2501,3.9634,143.2317,-3.0488
1595877720,1.0971,-0.5473,1.1943,-36.7683,164.2073,1.6463
1595877720,1.3397,-0.3531,1.2260,-64.5122,92.3781,61.0366
1595877720,1.1247,-0.0435,0.5617,-15.7927,66.8902,23.6585
1595877720,1.1531,0.2482,0.1655,11.1585,51.2195,-38.7195
1595877720,1.0626,0.4067,0.1968,29.8171,16.2805,-72.7439
1595877720,0.7111,0.5727,0.3890,34.3293,14.3293,-77.7439
1595877720,0.4690,0.6716,0.4760,24.6341,56.8902,-67.6829
1595877720,0.1760,0.6186,0.4572,6.3415,93.1707,-56.6463
1595877720,0.1307,0.4854,0.4850,-1.9512,76.7073,-45.8537
1595877720,0.4085,0.4273,0.4609,4.9390,21.6463,-35.7927
1595877720,0.7255,0.4229,0.4216,12.9878,-32.2561,-25.7317
1595877720,0.8719,0.4473,0.4828,11.9512,-56.7073,-19.2073
1595877720,0.8664,0.4667,0.5721,7.9878,-55.0000,-14.4512
1595877720,0.8494,0.4493,0.6114,7.2561,-41.5244,-9.1463
1595877720,0.8654,0.4232,0.5999,8.6585,-25.9756,-6.9512
1595877720,0.8829,0.4257,0.5845,11.8902,-13.9024,-9.9390
1595877720,0.8798,0.4200,0.5829,15.3659,-6.4634,-12.5610
1595877720,0.8390,0.4061,0.5972,15.7927,-1.0976,-13.2317
1595877720,0.7902,0.4138,0.6031,15.1220,1.0976,-13.5366
1595877720,0.7663,0.4313,0.5903,15.7927,-1.4024,-13.7805
1595877720,0.7838,0.4391,0.5827,16.6463,-7.1341,-13.8415
1595877720,0.8204,0.4349,0.5819,16.9512,-11.7683,-13.4146
1595877720,0.8328,0.4305,0.5737,16.8293,-12.7439,-13.1098
1595877720,0.8287,0.4472,0.5709,16.3415,-8.9634,-13.6585
1595877720,0.8500,0.4549,0.5818,14.3902,-2.3780,-14.5122
1595877720,0.8713,0.4568,0.5881,12.4390,6.4024,-16.0366
1595877720,0.8229,0.4631,0.5715,12.2561,18.7805,-15.4878
1595877720,0.7523,0.4495,0.5447,11.0366,32.8659,-13.5976
1595877720,0.7126,0.4138,0.5199,8.5366,39.7561,-11.4634
1595877720,0.6967,0.4066,0.5032,7.0732,38.6585,-10.0000
1595877720,0.6964,0.4216,0.4915,6.7683,35.5488,-10.0610
1595877720,0.6799,0.4291,0.4772,6.2195,33.0488,-11.4024
1595877720,0.6493,0.4494,0.4506,5.4268,31.8293,-12.9878
1595877720,0.6444,0.4973,0.4882,4.2683,30.6098,-14.5732
1595877720,0.6267,0.5209,0.5598,1.8902,29.0244,-15.4268
1595877720,0.6066,0.4959,0.5596,-1.3415,26.1585,-14.8171
1595877720,0.6319,0.4816,0.5297,-2.3171,21.3415,-11.5854
1595877720,0.6313,0.4856,0.5193,-1.8902,17.0122,-7.3780
1595877720,0.6017,0.4825,0.5161,-2.5610,14.7561,-3.8415
1595877720,0.5637,0.4827,0.5182,-4.3293,12.9878,-0.3049
1595877720,0.5421,0.4855,0.5164,-4.5732,10.4268,2.6829
1595877720,0.5624,0.4891,0.5375,-3.2317,6.1585,4.9390
1595877720,0.5825,0.4700,0.5700,-2.2561,1.7073,6.5244
1595877721,0.6002,0.4619,0.6270,-2.9268,-0.3659,6.0366
1595877721,0.6581,0.4941,0.6959,-2.8049,1.4634,3.6585
1595877721,0.7520,0.5096,0.7438,-2.7439,3.4756,2.8049
1595877721,0.8284,0.4759,0.7455,-5.1829,5.2439,3.0488
1595877721,0.8427,0.4448,0.6826,-8.2317,9.3293,1.5854
1595877721,0.8076,0.4171,0.5999,-11.2805,15.1829,1.8902
1595877721,0.7407,0.3798,0.5422,-13.3537,19.8780,3.7805
1595877721,0.6781,0.3806,0.5194,-13.5366,21.8293,4.9390
1595877721,0.6498,0.4104,0.5339,-12.0732,21.0976,5.5488
1595877721,0.6204,0.4243,0.5988,-9.6341,17.8659,6.8293
1595877721,0.5818,0.4324,0.6653,-9.3902,13.4146,7.7439
1595877721,0.6033,0.4772,0.7179,-10.6098,7.0732,5.3049
1595877721,0.7247,0.4984,0.7645,-8.9634,-5.0000,2.1951
1595877721,0.8579,0.4927,0.7664,-7.5000,-13.1707,2.4390
1595877721,0.8718,0.4781,0.6970,-7.7439,-8.1707,2.4390
1595877721,0.8209,0.4595,0.6074,-10.3659,4.0244,1.8293
1595877721,0.7615,0.4550,0.5974,-9.0244,12.8049,2.5000
1595877721,0.7007,0.4281,0.6084,-4.8780,18.2927,4.5122
1595877721,0.6519,0.3979,0.5970,-4.8780,20.7927,5.7317
1595877721,0.6774,0.3894,0.5581,-4.0244,21.2195,5.3049
1595877721,0.6946,0.3901,0.5458,-2.3780,20.6098,3.5366
1595877721,0.6179,0.3905,0.5503,-4.8780,15.9756,0.9146
1595877721,0.5860,0.4160,0.5831,-8.1098,10.0610,-0.4878
1595877721,0.6461,0.4706,0.6362,-10.5488,2.1341,-0.4268
1595877721,0.7411,0.4920,0.6503,-9.7561,-6.5854,-0.9146
1595877721,0.7900,0.4634,0.6660,-11.4024,-12.1951,-2.9268
1595877721,0.7903,0.4098,0.6370,-14.1463,-15.1220,-2.9268
1595877721,0.7221,0.4000,0.6133,-12.1341,-8.9634,-2.5610
1595877721,0.6188,0.4019,0.6035,-8.4146,2.1951,-1.7073
1595877721,0.5929,0.3474,0.5844,-6.8902,13.6585,-1.2195
1595877721,0.6017,0.3323,0.5633,-6.2805,21.9512,-2.4390
1595877721,0.5991,0.3525,0.5353,-3.5976,24.8171,-4.5122
1595877721,0.5762,0.3514,0.5271,-4.8171,20.2439,-6.5854
1595877721,0.5583,0.3388,0.5339,-7.0122,10.2439,-7.3171
1595877721,0.5540,0.3401,0.5392,-7.5000,-0.7927,-6.8902
1595877721,0.5489,0.3403,0.5397,-7.4390,-9.5732,-6.2805
1595877721,0.5472,0.3392,0.5465,-8.5366,-15.6707,-6.6463
1595877721,0.5248,0.3450,0.5278,-9.3293,-21.0366,-7.5000
1595877721,0.4860,0.3544,0.5309,-10.0610,-25.4878,-8.5976
1595877721,0.4837,0.3760,0.5510,-10.9756,-27.1341,-8.7805
1595877721,0.4942,0.3923,0.5611,-11.1585,-26.2805,-8.1098
1595877721,0.5164,0.3797,0.5704,-13.2927,-26.2195,-7.5000
1595877721,0.5458,0.3862,0.5664,-17.0732,-28.2317,-7.2561
1595877721,0.5784,0.3959,0.5623,-20.6098,-32.0732,-7.4390
1595877721,0.6077,0.3854,0.5496,-23.8415,-35.5488,-7.0732
1595877721,0.6266,0.3550,0.5209,-26.5854,-36.7073,-5.2439
1595877721,0.6431,0.3200,0.4701,-30.7927,-34.3902,-2.7439
1595877721,0.6465,0.2940,0.4458,-34.6341,-27.1951,-0.3659
1595877721,0.6371,0.2694,0.4516,-37.8049,-18.5366,2.2561
1595877721,0.6537,0.2515,0.5159,-45.7317,-10.7927,4.2683
1595877721,0.6777,0.2305,0.5795,-54.0854,1.5854,3.7805
1595877721,0.6713,0.1613,0.6450,-60.1829,20.0610,2.6829
1595877721,0.5399,0.0820,0.7353,-55.3659,46.4634,3.1707
1595877721,0.4290,-0.0974,0.8602,-43.1707,73.5366,0.6098
1595877721,0.3951,-0.0062,1.0223,-35.0000,82.7439,-2.1341
1595877721,0.4706,0.3309,0.9637,-22.1951,77.1951,-0.0610
1595877721,0.4393,0.2110,0.7068,-11.0366,72.9878,-14.3902
1595877721,0.5889,-0.1099,0.6247,-23.1707,60.6098,-24.8780
1595877721,0.8697,-0.2887,0.6177,-27.5000,26.7683,-26.0976
1595877721,0.9351,-0.3472,0.6166,-16.8293,5.0610,-32.6829
1595877721,0.7927,-0.2842,0.6339,-6.7073,15.9146,-38.4756
1595877721,0.5675,-0.0839,0.5450,2.0122,40.6098,-46.2805
1595877721,0.4432,0.1782,0.4742,3.5976,47.7439,-50.7317
1595877721,0.5070,0.3539,0.4471,1.9512,27.1951,-48.3537
1595877721,0.6293,0.4442,0.4689,-1.4634,-10.3049,-45.1220
1595877721,0.7593,0.4661,0.5137,-8.7805,-49.6341,-42.7439
1595877721,0.8173,0.4078,0.5919,-18.1707,-82.3781,-40.3659
1595877721,0.8436,0.2871,0.6927,-25.7317,-106.1585,-39.3902
1595877721,0.9066,0.1682,0.7744,-27.9268,-120.1220,-36.2195
1595877721,0.9222,0.1223,0.7943,-24.2683,-123.5366,-30.0000
1595877721,0.8531,0.1175,0.7859,-22.9268,-113.5976,-26.6463
1595877721,0.7451,0.1137,0.7390,-26.1585,-96.8293,-25.3659
1595877721,0.6309,0.1637,0.6202,-30.7317,-85.1829,-24.9390
1595877721,0.6005,0.2424,0.5455,-37.8659,-83.9634,-25.7927
1595877721,0.6830,0.2775,0.5095,-42.0122,-83.7195,-24.1463
1595877721,0.7366,0.2369,0.4839,-42.2561,-72.8659,-18.7805
1595877721,0.7182,0.1885,0.5080,-43.9634,-53.1098,-11.4024
1595877721,0.6943,0.1299,0.5429,-45.8537,-29.9390,-5.9756
1595877721,0.6377,0.0616,0.5219,-45.7927,-14.2073,-2.9878
1595877721,0.5775,0.0129,0.4977,-46.0976,-10.1829,0.1829
1595877721,0.5580,0.0259,0.4558,-47.3171,-15.0610,4.8780
1595877721,0.5367,0.0618,0.3145,-50.1829,-27.6220,11.0976
1595877721,0.5394,0.1086,0.2139,-57.5610,-44.4512,15.9756
1595877721,0.6019,0.1739,0.2610,-65.3049,-61.7683,22.4390
1595877721,0.6693,0.2310,0.3488,-71.1585,-76.5854,34.2073
1595877721,0.6979,0.2430,0.4348,-73.2927,-83.0488,46.7073
1595877721,0.6787,0.2254,0.4979,-76.6463,-81.0976,59.2073
1595877721,0.6619,0.1645,0.5270,-84.8171,-75.6098,73.1098
1595877721,0.6863,0.0575,0.5833,-94.9390,-73.2317,87.0122
1595877721,0.7031,-0.0076,0.6592,-99.8171,-75.0000,101.3415
1595877721,0.7267,-0.0087,0.6530,-98.1707,-76.2195,116.3415
1595877721,0.7993,-0.0034,0.6108,-96.9512,-74.1463,130.0000
1595877721,0.8357,0.0083,0.6456,-97.3171,-69.3293,142.0732
1595877721,0.8084,0.0439,0.6609,-97.8659,-60.9146,153.1098
1595877721,0.7570,0.0724,0.6035,-100.3049,-50.3659,161.7683
1595877721,0.7699,0.0486,0.5383,-105.4878,-45.4878,170.7927
1595877721,0.8344,-0.0080,0.5177,-108.6585,-45.4268,179.6342
1595877721,0.9260,-0.0725,0.5425,-108.8415,-44.7561,187.5610
1595877721,1.0349,-0.1288,0.5734,-107.6220,-39.5732,195.1219
1595877721,1.0704,-0.1937,0.5817,-107.3171,-26.9512,199.8171
1595877721,1.0847,-0.2555,0.5925,-107.8659,-5.9756,201.8902
1595877721,1.1370,-0.2849,0.5950,-106.4634,17.5610,206.7073
1595877721,1.1271,-0.3024,0.5710,-107.5610,36.5854,212.6829
1595877721,1.0403,-0.3175,0.5898,-113.3537,45.1829,214.3293
1595877721,0.9472,-0.3065,0.6021,-119.5732,36.5244,213.9634
1595877721,0.9046,-0.3088,0.5967,-127.5610,8.9024,212.8049
1595877721,0.9219,-0.3639,0.6043,-137.5610,-31.2195,209.8781
1595877721,1.0282,-0.4232,0.6097,-143.5976,-71.0976,207.3781
1595877721,1.1507,-0.4632,0.6143,-140.7927,-95.6098,207.1951
1595877721,1.1948,-0.5197,0.6335,-136.6463,-99.5122,207.6220
1595877722,1.1900,-0.5575,0.6501,-132.9268,-88.0488,208.7195
1595877722,1.1548,-0.5505,0.6451,-126.1585,-67.9878,210.4268
1595877722,1.0961,-0.5287,0.6226,-117.7439,-43.7195,210.7927
1595877722,1.0739,-0.5364,0.6177,-112.5000,-19.2073,209.6342
1595877722,1.1519,-0.5893,0.6442,-106.8293,3.5976,208.9634
1595877722,1.1707,-0.6601,0.6614,-98.4146,24.2073,208.7805
1595877722,1.0345,-0.6965,0.6602,-91.2195,39.0244,205.2439
1595877722,0.9060,-0.7041,0.6252,-89.0854,45.4268,199.8781
1595877722,0.8402,-0.6989,0.5829,-89.0854,41.7073,195.6098
1595877722,0.7938,-0.6818,0.5361,-87.5000,30.9146,190.8537
1595877722,0.7502,-0.6982,0.4694,-85.9146,21.0976,186.7073
1595877722,0.7092,-0.7037,0.4392,-85.3049,14.6951,185.7317
1595877722,0.6238,-0.7019,0.4017,-83.2317,12.0732,187.7439
1595877722,0.5424,-0.7369,0.3591,-82.6220,12.4390,187.8049
1595877722,0.5137,-0.7999,0.3339,-82.7439,8.5976,190.7317
1595877722,0.5199,-0.8669,0.3243,-81.6463,-0.9146,196.3415
1595877722,0.5239,-0.9551,0.3306,-80.5488,-11.5244,199.9390
1595877722,0.5568,-1.0466,0.3179,-78.2927,-17.9268,203.7805
1595877722,0.5985,-1.1242,0.3047,-73.1707,-14.6341,207.2561
1595877722,0.6152,-1.1760,0.2902,-68.2927,-3.2927,208.6585
1595877722,0.5844,-1.2305,0.2824,-65.9146,12.2561,208.4146
1595877722,0.5312,-1.2923,0.2728,-67.4390,27.2561,207.3781
1595877722,0.4880,-1.3603,0.2744,-69.0854,39.0854,205.1829
1595877722,0.4615,-1.4057,0.2899,-68.7805,47.2561,200.8537
1595877722,0.4385,-1.4147,0.3126,-66.5854,52.9878,194.1463
1595877722,0.4255,-1.3984,0.3184,-64.8171,56.3415,185.2439
1595877722,0.4193,-1.3703,0.3107,-63.2317,58.1707,173.3537
1595877722,0.4077,-1.3452,0.3008,-61.1585,59.3293,157.9878
1595877722,0.3971,-1.3285,0.2970,-57.8049,61.0976,140.6098
1595877722,0.3870,-1.3008,0.2952,-52.0732,63.7195,122.8659
1595877722,0.3745,-1.2652,0.2882,-44.9390,67.3171,104.8781
1595877722,0.3599,-1.2292,0.2756,-37.4390,73.0488,85.4268
1595877722,0.3358,-1.1973,0.2566,-29.9390,79.8781,65.3049
1595877722,0.3001,-1.1513,0.2244,-23.7805,85.9756,47.1341
1595877722,0.2539,-1.0963,0.1818,-18.7805,89.8171,29.5732
1595877722,0.2044,-1.0547,0.1330,-13.9024,91.2805,11.8902
1595877722,0.1562,-1.0414,0.0894,-9.6951,91.7073,-4.2073
1595877722,0.1119,-1.0214,0.0588,-6.2195,90.0610,-14.8171
1595877722,0.0955,-0.9926,0.0353,-1.4024,84.6951,-21.2805
1595877722,0.1027,-0.9770,0.0364,3.9024,75.4878,-26.6463
1595877722,0.1180,-0.9661,0.0423,7.5610,64.6951,-29.5732
1595877722,0.1221,-0.9512,0.0388,10.3659,54.5732,-30.8537
1595877722,0.1398,-0.9376,0.0416,12.2561,43.4146,-31.3415
1595877722,0.1738,-0.9251,0.0555,14.1463,30.9756,-31.3415
1595877722,0.2021,-0.9066,0.0612,16.7073,18.9024,-30.9756
1595877722,0.2227,-0.8856,0.0531,18.7805,8.9024,-30.6707
1595877722,0.2305,-0.8665,0.0458,19.6341,1.4024,-29.9390
1595877722,0.2266,-0.8510,0.0346,20.4268,-3.8415,-27.9878
1595877722,0.2196,-0.8442,0.0336,20.5488,-6.8293,-25.6707
1595877722,0.2118,-0.8404,0.0408,20.6707,-7.9878,-23.0488
1595877722,0.2047,-0.8376,0.0322,21.2805,-7.7439,-20.9756
1595877722,0.1970,-0.8470,0.0264,21.5854,-6.5854,-19.8780
1595877722,0.1837,-0.8536,0.0269,21.0366,-5.0000,-18.8415
1595877722,0.1607,-0.8491,0.0266,20.3049,-3.2927,-16.8293
1595877722,0.1465,-0.8688,0.0168,19.0854,-2.5610,-15.0610
1595877722,0.1484,-0.9067,0.0054,18.2927,-2.9878,-13.5366
1595877722,0.1472,-0.9454,-0.0096,17.8659,-3.7195,-10.2439
1595877722,0.1401,-0.9839,-0.0284,16.3415,-3.4756,-6.6463
1595877722,0.1330,-1.0033,-0.0347,13.8415,-3.4146,-3.5976
1595877722,0.1367,-0.9951,-0.0358,12.3171,-4.0244,-2.3171
1595877722,0.1348,-0.9716,-0.0402,11.9512,-2.9878,-2.1951
1595877722,0.1198,-0.9452,-0.0327,10.9146,1.7073,-2.3171
1595877722,0.1086,-0.9229,-0.0170,10.2439,9.5732,-2.9268
1595877722,0.1056,-0.9260,-0.0023,10.0610,18.5366,-3.7195
1595877722,0.1069,-0.9601,0.0104,9.5122,26.8902,-4.7561
1595877722,0.0905,-0.9946,0.0168,9.4512,34.5122,-6.8902
1595877722,0.0635,-1.0170,0.0170,9.9390,41.4634,-9.3902
1595877722,0.0399,-1.0342,0.0120,11.1585,46.7683,-11.8902
1595877722,0.0118,-1.0657,-0.0047,12.7439,50.1220,-14.5122
1595877722,-0.0114,-1.1013,-0.0152,13.9024,52.3781,-16.8902
1595877722,-0.0269,-1.1201,-0.0221,15.3659,53.2317,-18.6585
1595877722,-0.0382,-1.1189,-0.0262,17.0732,52.3171,-20.7317
1595877722,-0.0565,-1.1028,-0.0205,18.3537,50.3659,-22.9878
1595877722,-0.0740,-1.0881,-0.0143,19.1463,47.6220,-25.0000
1595877722,-0.1018,-1.0739,-0.0126,19.6341,43.7805,-27.0122
1595877722,-0.1208,-1.0686,-0.0174,19.4512,38.3537,-28.7195
1595877722,-0.1339,-1.0814,-0.0029,18.7805,31.4634,-30.5488
1595877722,-0.1266,-1.0985,0.0275,17.6829,23.5366,-32.3780
1595877722,-0.1101,-1.0976,0.0544,17.1341,14.9390,-34.1463
1595877722,-0.0967,-1.0967,0.0839,15.9756,6.7073,-35.9756
1595877722,-0.0822,-1.0975,0.1005,14.2683,0.4268,-38.7195
1595877722,-0.0720,-1.0905,0.1135,12.6220,-3.4756,-40.5488
1595877722,-0.0594,-1.0653,0.1262,11.2805,-6.0366,-41.4634
1595877722,-0.0506,-1.0251,0.1337,10.5488,-7.6220,-42.5000
1595877722,-0.0401,-0.9796,0.1399,10.2439,-7.7439,-44.2073
1595877722,-0.0331,-0.9454,0.1386,9.9390,-5.2439,-45.0610
1595877722,-0.0322,-0.9250,0.1413,9.6951,-0.7927,-45.7317
1595877722,-0.0325,-0.9107,0.1531,9.1463,4.6341,-46.3415
1595877722,-0.0274,-0.8983,0.1666,9.2073,9.8780,-46.5244
1595877722,-0.0150,-0.8870,0.1802,9.8171,14.5732,-46.5854
1595877722,-0.0005,-0.8818,0.1924,10.6707,18.5976,-46.8902
1595877722,-0.0090,-0.8820,0.1923,11.9512,22.6829,-47.0122
1595877722,-0.0364,-0.8702,0.1785,13.4146,26.7683,-46.7683
1595877722,-0.0532,-0.8522,0.1670,14.0854,29.6341,-46.0366
1595877722,-0.0529,-0.8367,0.1568,14.5732,30.0610,-44.8780
1595877722,-0.0508,-0.8268,0.1485,14.9390,28.6585,-43.8415
1595877722,-0.0533,-0.8198,0.1344,14.6341,26.4634,-42.7439
1595877722,-0.0425,-0.8170,0.1287,13.8415,23.4756,-40.5488
1595877722,-0.0306,-0.8106,0.1344,13.1098,20.2439,-37.8659
1595877723,-0.0270,-0.7979,0.1446,11.7073,17.0732,-35.4268
1595877723,-0.0146,-0.7961,0.1570,9.8171,13.2927,-33.0488
1595877723,0.0140,-0.8019,0.1728,8.1707,8.6585,-30.6707
1595877723,0.0413,-0.8085,0.1848,7.0122,4.8171,-28.3537
1595877723,0.0573,-0.8132,0.1864,5.3049,3.1707,-25.7317
1595877723,0.0704,-0.8152,0.1847,3.1098,3.1098,-23.2317
1595877723,0.0901,-0.8171,0.1877,0.6707,3.8415,-20.6098
1595877723,0.1153,-0.8218,0.1850,-1.3415,5.0000,-17.8659
1595877723,0.1320,-0.8235,0.1851,-3.3537,7.1951,-15.1829
1595877723,0.1437,-0.8270,0.1895,-5.3659,10.3049,-12.1951
1595877723,0.1533,-0.8245,0.1907,-7.2561,14.0244,-8.9024
1595877723,0.1554,-0.8235,0.1880,-9.0854,17.8049,-5.6098
1595877723,0.1619,-0.8244,0.1842,-11.1585,21.3415,-2.2561
1595877723,0.1732,-0.8304,0.1805,-12.9268,24.2073,1.0366
1595877723,0.1812,-0.8403,0.1752,-14.1463,26.5244,4.2073
1595877723,0.1888,-0.8433,0.1777,-15.3049,28.9634,7.2561
1595877723,0.1945,-0.8461,0.1796,-16.2805,31.0366,10.1829
1595877723,0.2032,-0.8505,0.1819,-17.3780,32.5000,12.8049
1595877723,0.2035,-0.8604,0.1832,-18.0488,33.9024,14.5732
1595877723,0.2130,-0.8742,0.1834,-18.5976,34.8780,16.2805
1595877723,0.2167,-0.8856,0.1804,-18.9024,35.4878,17.7439
1595877723,0.2198,-0.8976,0.1769,-19.2683,35.8537,18.7805
1595877723,0.2188,-0.9100,0.1794,-19.3902,36.2195,19.3902
1595877723,0.2151,-0.9250,0.1807,-19.6341,36.3415,19.7561
1595877723,0.2157,-0.9421,0.1809,-19.7561,35.7927,19.6951
1595877723,0.2162,-0.9495,0.1886,-19.8171,34.8171,19.2073
1595877723,0.2126,-0.9429,0.1951,-19.7561,34.2683,18.7195
1595877723,0.2031,-0.9356,0.1924,-19.6341,33.4756,17.5000
1595877723,0.2053,-0.9495,0.1867,-20.4268,31.4634,15.9756
1595877723,0.2111,-0.9896,0.1814,-21.0366,28.9024,13.9634
1595877723,0.2144,-1.0474,0.1743,-21.0366,26.5854,12.8049
1595877723,0.2167,-1.1137,0.1772,-21.3415,25.1220,13.2927
1595877723,0.2260,-1.1667,0.1936,-21.7683,23.7805,14.2073
1595877723,0.2404,-1.2007,0.2197,-20.9146,22.6220,15.2439
1595877723,0.2450,-1.2260,0.2423,-19.3902,22.8659,15.7927
1595877723,0.2374,-1.2535,0.2598,-18.1707,24.7561,15.4878
1595877723,0.2305,-1.2734,0.2719,-16.7073,26.8902,15.2439
1595877723,0.2302,-1.2697,0.2847,-13.9024,28.4756,14.5122
1595877723,0.2373,-1.2484,0.2832,-9.8171,29.6341,12.1341
1595877723,0.2416,-1.2203,0.2762,-5.7927,30.3659,8.1707
1595877723,0.2424,-1.1920,0.2701,-2.1341,30.6098,3.2927
1595877723,0.2336,-1.1633,0.2590,1.5244,31.0976,-2.2561
1595877723,0.2151,-1.1380,0.2440,5.0000,31.8293,-8.5976
1595877723,0.1858,-1.1194,0.2302,8.2927,32.5610,-15.1220
1595877723,0.1622,-1.1033,0.2201,11.2805,33.1098,-21.5244
1595877723,0.1541,-1.0927,0.2076,14.6341,32.7439,-27.5610
1595877723,0.1500,-1.0930,0.1982,18.3537,31.1585,-33.1707
1595877723,0.1569,-1.0992,0.1862,22.0122,29.2073,-37.8659
1595877723,0.1575,-1.1035,0.1753,25.4878,27.3171,-41.5244
1595877723,0.1630,-1.0970,0.1693,28.5976,25.0000,-44.5732
1595877723,0.1873,-1.0769,0.1674,31.6463,21.5244,-47.1951
1595877723,0.2362,-1.0551,0.1688,35.8537,17.6220,-49.6341
1595877723,0.2842,-1.0315,0.1686,40.4878,15.3049,-52.2561
1595877723,0.3116,-1.0092,0.1594,44.0244,15.6707,-55.4878
1595877723,0.3212,-0.9992,0.1558,46.5244,18.7195,-58.8415
1595877723,0.3119,-1.0009,0.1570,48.4756,22.9878,-61.7683
1595877723,0.2829,-1.0126,0.1444,50.7927,26.7073,-64.4512
1595877723,0.2622,-1.0027,0.1189,52.6220,27.9878,-66.7073
1595877723,0.2578,-0.9682,0.1002,53.1707,25.6098,-69.0244
1595877723,0.2587,-0.9178,0.0818,53.8415,21.2805,-72.5610
1595877723,0.2620,-0.8773,0.0707,54.0854,17.0122,-76.0366
1595877723,0.2792,-0.8519,0.0581,52.8659,12.5610,-77.9878
1595877723,0.3083,-0.8258,0.0480,51.8293,7.5610,-79.6951
1595877723,0.3455,-0.8083,0.0571,50.4268,2.6829,-81.4024
1595877723,0.3813,-0.8223,0.0884,48.4146,-0.9146,-82.1341
1595877723,0.4064,-0.8587,0.0995,48.3537,-0.7927,-81.7073
1595877723,0.4158,-0.8967,0.0955,47.9268,1.1585,-80.7317
1595877723,0.4252,-0.8960,0.0900,45.7927,1.1585,-80.0610
1595877723,0.4345,-0.8723,0.0781,44.4512,-0.7317,-80.6098
1595877723,0.4505,-0.8532,0.0560,43.4756,-2.8659,-81.3415
1595877723,0.4732,-0.8386,0.0370,41.3415,-5.5488,-81.0976
1595877723,0.5060,-0.8287,0.0195,39.3293,-8.3537,-80.9146
1595877723,0.5584,-0.8268,0.0195,37.6829,-10.5488,-81.0976
1595877723,0.6111,-0.8572,0.0337,36.4634,-10.6707,-81.0366
1595877723,0.6332,-0.8964,0.0391,37.0122,-6.5854,-81.0976
1595877723,0.6165,-0.9224,0.0370,37.5000,0.6707,-80.9756
1595877723,0.5970,-0.9234,0.0377,35.6707,7.0122,-81.0976
1595877723,0.5944,-0.9038,0.0423,34.4512,10.4878,-82.4390
1595877723,0.5913,-0.8684,0.0321,34.5732,12.5000,-84.3902
1595877723,0.5834,-0.8499,0.0192,32.6220,12.4390,-85.7927
1595877723,0.5890,-0.8404,0.0116,28.1098,8.4756,-87.1341
1595877723,0.6187,-0.8206,0.0091,24.6951,2.0122,-88.5366
1595877723,0.6482,-0.7996,0.0119,21.4024,-4.2073,-89.2073
1595877723,0.6654,-0.7806,0.0182,16.5244,-8.5976,-89.2073
1595877723,0.6727,-0.7686,0.0243,11.4024,-11.0976,-89.2683
1595877723,0.6772,-0.7581,0.0280,6.1585,-12.6829,-89.9390
1595877723,0.6882,-0.7451,0.0343,0.6098,-14.5732,-90.6707
1595877723,0.7056,-0.7314,0.0573,-5.0610,-16.4024,-91.2195
1595877723,0.7261,-0.7133,0.0862,-9.9390,-16.4634,-91.8293
1595877723,0.7386,-0.6846,0.1160,-14.0854,-13.4146,-91.9512
1595877723,0.7458,-0.6633,0.1284,-17.9268,-7.7439,-91.6463
1595877723,0.7492,-0.6378,0.1357,-21.0366,-0.7317,-91.2805
1595877723,0.7613,-0.6218,0.1531,-22.7439,5.7317,-91.0976
1595877723,0.7740,-0.6137,0.1558,-23.7195,11.5244,-90.7317
1595877724,0.7626,-0.6288,0.1381,-25.3659,16.4634,-90.1220
1595877724,0.7354,-0.6519,0.1257,-27.8049,19.5122,-88.2317
1595877724,0.7191,-0.6500,0.1157,-27.8659,20.5488,-85.4268
1595877724,0.7118,-0.6332,0.1074,-27.1341,19.8171,-82.3781
1595877724,0.7023,-0.6057,0.0953,-27.5610,17.7439,-78.7805
1595877724,0.6876,-0.5825,0.0902,-29.3293,14.8780,-75.0000
1595877724,0.6806,-0.5639,0.0965,-32.4390,10.5488,-71.2805
1595877724,0.6677,-0.5560,0.1141,-36.3415,4.2683,-67.5000
1595877724,0.6628,-0.5307,0.1249,-40.3049,-2.6829,-64.1463
1595877724,0.6502,-0.5219,0.1187,-45.0610,-8.9024,-60.5488
1595877724,0.6360,-0.5204,0.1223,-51.2195,-14.9390,-57.7439
1595877724,0.6422,-0.5029,0.1322,-54.3293,-22.5610,-54.6951
1595877724,0.6621,-0.5043,0.1431,-56.3415,-29.5122,-51.5854
1595877724,0.6798,-0.5172,0.1528,-58.7195,-34.8780,-48.9024
1595877724,0.6891,-0.5168,0.1496,-59.3902,-37.0122,-45.3049
1595877724,0.6882,-0.5291,0.1418,-59.4512,-35.0000,-40.7927
1595877724,0.6705,-0.5524,0.1275,-60.7317,-30.4268,-36.0976
1595877724,0.6330,-0.5544,0.1068,-62.0122,-25.2439,-31.2195
1595877724,0.5965,-0.5541,0.0916,-63.4146,-22.0732,-26.5854
1595877724,0.5808,-0.5665,0.0623,-65.7927,-22.3171,-22.8049
1595877724,0.5817,-0.5895,0.0416,-68.7195,-25.1220,-18.6585
1595877724,0.6070,-0.6133,0.0490,-69.1463,-27.3780,-13.3537
1595877724,0.6559,-0.6426,0.0711,-67.0122,-26.4024,-6.8902
1595877724,0.6750,-0.6607,0.0952,-64.0244,-21.5854,-0.0610
1595877724,0.6599,-0.6832,0.1104,-60.9146,-12.5610,4.4512
1595877724,0.6312,-0.7097,0.1025,-59.2073,-2.9268,7.8049
1595877724,0.5861,-0.7294,0.0853,-58.9024,4.5122,11.1585
1595877724,0.5552,-0.7349,0.0614,-57.4390,10.5488,14.0854
1595877724,0.5662,-0.7479,0.0543,-55.6098,15.0610,17.3171
1595877724,0.5974,-0.7518,0.0723,-52.9878,17.8049,22.0732
1595877724,0.5981,-0.7707,0.0828,-48.1707,22.6220,26.7073
1595877724,0.5581,-0.8013,0.1062,-43.8415,30.4878,29.5732
1595877724,0.4909,-0.7922,0.1253,-37.8049,39.8780,33.5366
1595877724,0.4189,-0.8012,0.0961,-33.6585,45.3049,38.6585
1595877724,0.4062,-0.8284,0.0259,-34.0244,42.5000,40.0000
1595877724,0.4503,-0.8641,-0.0262,-34.9390,31.2195,40.6707
1595877724,0.5238,-0.8912,-0.0420,-35.3049,18.5366,43.2927
1595877724,0.5804,-0.9151,0.0026,-35.0000,11.4634,46.0976
1595877724,0.6177,-0.9517,0.0728,-34.3902,8.7805,48.2927
1595877724,0.6219,-0.9720,0.1362,-31.5244,9.5732,48.3537
1595877724,0.5630,-0.9655,0.1758,-26.7073,12.9878,47.8659
1595877724,0.4880,-0.9612,0.1796,-23.7195,15.9756,46.6463
1595877724,0.4286,-0.9522,0.1615,-22.5610,15.5488,45.1829
1595877724,0.4292,-0.9626,0.1331,-24.3293,7.7439,43.2317
1595877724,0.5157,-0.9774,0.0940,-28.1707,-6.2805,40.2439
1595877724,0.5953,-0.9749,0.0836,-31.2195,-20.7927,37.9268
1595877724,0.6237,-0.9747,0.0974,-33.0488,-29.5732,35.9146
1595877724,0.6183,-0.9775,0.1172,-33.7195,-32.0732,34.1463
1595877724,0.5675,-0.9690,0.1435,-33.3537,-32.3171,32.6829
1595877724,0.4943,-0.9564,0.1578,-31.8293,-32.9268,30.2439
1595877724,0.4392,-0.9327,0.1591,-28.5976,-34.2683,27.3780
1595877724,0.4594,-0.9241,0.1370,-25.9756,-37.9878,25.6707
1595877724,0.5412,-0.9230,0.1045,-24.5122,-43.1707,25.3049
1595877724,0.6127,-0.9168,0.0770,-22.4390,-45.0610,25.3049
1595877724,0.6358,-0.8990,0.0659,-20.3049,-42.0732,25.8537
1595877724,0.6055,-0.8779,0.0629,-19.1463,-38.2927,25.5488
1595877724,0.5476,-0.8549,0.0453,-18.7805,-35.7317,24.0244
1595877724,0.4886,-0.8310,0.0110,-18.6585,-34.9390,23.7195
1595877724,0.4824,-0.8265,-0.0126,-18.9024,-36.8902,23.9634
1595877724,0.5093,-0.8234,-0.0126,-19.5122,-40.6707,24.2073
1595877724,0.5215,-0.8240,-0.0021,-19.0854,-42.5000,24.3902
1595877724,0.5060,-0.8007,-0.1743,-18.0488,-41.5244,24.4512
1595877724,0.6711,-0.8771,-0.1441,-16.3415,-36.4634,24.9390
1595877724,0.7343,-0.9586,0.2466,-13.1707,-21.7073,24.8780
1595877724,0.7125,-0.7816,0.1942,0.9146,-10.6098,21.9512
1595877724,0.6542,-0.7457,0.0906,12.6220,9.8780,14.6951
1595877724,0.4940,-0.8228,-0.0095,5.9146,27.8659,14.0854
1595877724,0.5007,-0.8265,0.0256,3.7805,21.6463,10.8537
1595877724,0.6495,-0.8056,0.0522,7.5610,-4.5732,9.2683
1595877724,0.6319,-0.8030,0.0338,4.5732,-18.4146,11.2195
1595877724,0.5734,-0.8013,-0.0358,-1.5244,-16.5854,12.8659
1595877724,0.6900,-0.8737,-0.0101,-7.2561,-22.7439,14.4512
1595877724,0.8661,-0.9023,0.0234,-11.4024,-34.5732,11.0976
1595877724,0.8778,-0.8665,0.0773,-4.7561,-29.5122,7.2561
1595877724,0.7300,-0.7670,-0.0636,0.4268,-10.6707,9.9390
1595877724,0.5630,-0.7374,-0.2281,-0.9756,4.3902,10.9146
1595877724,0.6389,-0.7846,-0.2412,-6.5244,10.9756,11.4634
1595877724,0.9821,-0.8862,0.0978,-10.9146,-17.0732,9.8171
1595877724,1.0479,-0.8748,0.1617,-5.3049,-36.8902,0.9756
1595877724,0.5764,-0.7900,0.0538,3.0488,6.7073,-3.8415
1595877724,0.4476,-0.7767,-0.0771,4.9390,45.1829,-4.3902
1595877724,0.6442,-0.8734,-0.0189,4.9390,41.4634,-5.0610
1595877724,0.5599,-0.8052,0.0233,5.6098,24.7561,-4.5732
1595877724,0.4474,-0.8012,0.0684,9.0244,21.8293,4.2073
1595877724,0.5356,-0.8533,0.1343,8.2927,17.1341,8.2317
1595877724,0.5125,-0.8176,0.1817,6.2195,2.5610,7.1341
1595877724,0.4620,-0.8091,0.1451,5.3049,-0.2439,9.3293
1595877724,0.5125,-0.8278,0.0811,5.4268,6.2195,9.2073
1595877724,0.4965,-0.8417,0.0510,7.3171,10.0610,6.6463
1595877724,0.4492,-0.8608,0.0330,11.3415,13.7805,6.1585
1595877725,0.6176,-0.8912,0.0302,16.2805,11.0366,4.7561
1595877725,0.7136,-0.9028,-0.0215,19.6951,1.4634,4.2073
1595877725,0.6251,-0.9075,-0.0253,13.9634,7.8659,3.7195
1595877725,0.5647,-0.9039,-0.0107,13.4146,4.2683,0.2439
1595877725,0.5138,-0.8480,-0.0737,12.2561,-4.3293,-2.3780
1595877725,0.4420,-0.8447,-0.1080,10.9756,-10.6098,-2.8659
1595877725,0.4204,-0.8972,-0.1062,7.9268,-12.9878,-3.2317
1595877725,0.4499,-0.9364,-0.0767,7.7439,-22.3780,-5.4878
1595877725,0.4767,-0.9284,-0.0747,8.3537,-34.4512,-6.7073
1595877725,0.4909,-0.9180,-0.0955,8.2317,-42.8049,-7.3171
1595877725,0.5368,-0.9241,-0.1060,7.0732,-45.5488,-8.3537
1595877725,0.5779,-0.9262,-0.1096,6.5854,-44.6341,-10.7927
1595877725,0.6232,-0.9346,-0.1242,6.0366,-43.2317,-13.9634
1595877725,0.6249,-0.9465,-0.1452,5.2439,-39.8171,-17.3171
1595877725,0.5300,-0.9650,-0.1524,4.3293,-30.7927,-21.0366
1595877725,0.4731,-0.9929,-0.1263,2.1951,-25.4878,-24.8171
1595877725,0.5022,-1.0040,-0.0826,0.6098,-30.3659,-28.5366
1595877725,0.5706,-0.9700,-0.0690,1.4024,-38.1098,-32.5000
1595877725,0.6089,-0.9258,-0.1055,3.5366,-39.1463,-36.7683
1595877725,0.6008,-0.9039,-0.1393,3.4146,-31.4024,-39.9390
1595877725,0.5842,-0.9066,-0.1411,1.7073,-20.6098,-40.8537
1595877725,0.6246,-0.9141,-0.1232,0.3659,-14.1463,-40.9146
1595877725,0.6766,-0.8923,-0.0958,1.0366,-12.5610,-42.6829
1595877725,0.6532,-0.9005,-0.0847,1.0976,-8.1707,-45.8537
1595877725,0.5915,-0.9153,-0.0687,-1.6463,0.0000,-49.0854
1595877725,0.5672,-0.9269,-0.0356,-2.3780,4.8171,-51.9512
1595877725,0.5740,-0.9265,-0.0017,-1.3415,6.0366,-54.5122
1595877725,0.6034,-0.9049,0.0201,2.0122,8.9024,-55.8537
1595877725,0.6335,-0.8979,0.0145,6.8902,15.0610,-56.3415
1595877725,0.6306,-0.8862,0.0136,11.1585,25.0000,-55.2439
1595877725,0.6179,-0.8545,0.0165,15.7927,36.0976,-51.5854
1595877725,0.6113,-0.8242,-0.0081,19.7561,44.4512,-47.9268
1595877725,0.6078,-0.7965,-0.0297,24.0854,50.0000,-45.0000
1595877725,0.6039,-0.8033,-0.0305,27.4390,53.0488,-42.8659
1595877725,0.6391,-0.8087,-0.0171,30.4268,51.9512,-42.8049
1595877725,0.5612,-0.7609,-0.0693,33.6585,50.3049,-42.3171
1595877725,0.5698,-0.7493,-0.0483,30.1220,44.7561,-43.0488
1595877725,0.7328,-0.7178,-0.0538,30.5488,32.8659,-39.3293
1595877725,0.8003,-0.6606,-0.0556,35.1220,25.4268,-37.6829
1595877725,0.7354,-0.6137,-0.0855,37.1341,32.8049,-34.0854
1595877725,0.6539,-0.6145,-0.0978,39.1463,43.2317,-27.1341
1595877725,0.6246,-0.6693,-0.0753,40.7317,40.2439,-20.5488
1595877725,0.6022,-0.6792,-0.0916,43.6585,22.5610,-15.7927
1595877725,0.5853,-0.6975,-0.0844,45.4878,-0.9146,-12.5000
1595877725,0.6309,-0.7101,-0.0528,46.2805,-24.4512,-8.5976
1595877725,0.7347,-0.6990,-0.0457,50.0000,-43.4146,-5.4268
1595877725,0.8719,-0.7249,-0.0286,53.7195,-50.4878,-4.4512
1595877725,0.9295,-0.7302,-0.0137,57.8049,-43.4146,-3.5366
1595877725,0.8521,-0.6905,-0.0101,63.9634,-23.5366,-2.0122
1595877725,0.7513,-0.6826,-0.0153,70.0610,-1.1585,-0.6098
1595877725,0.7036,-0.7028,-0.0036,73.4756,11.2195,2.1341
1595877725,0.6928,-0.6949,0.0474,77.5000,7.4390,4.0854
1595877725,0.6768,-0.6747,0.0851,82.9878,-4.4512,5.3049
1595877725,0.6573,-0.6718,0.0880,87.2561,-16.2805,5.3049
1595877725,0.6514,-0.6874,0.0850,89.5732,-27.8049,4.3902
1595877725,0.7492,-0.7247,0.0822,91.7683,-39.4512,3.9634
1595877725,0.9199,-0.7816,0.1275,95.6707,-45.0000,4.6951
1595877725,0.9528,-0.7162,0.1721,105.0000,-34.9390,7.6220
1595877725,0.8496,-0.6520,0.1432,116.4024,-6.7073,11.4024
1595877725,0.7009,-0.6346,0.1250,121.7683,24.0854,14.9390
1595877725,0.5778,-0.6168,0.1115,125.6707,34.7561,18.2927
1595877725,0.5423,-0.6062,0.1042,128.9634,22.5610,20.6707
1595877725,0.6039,-0.5975,0.0749,129.9390,-2.6829,22.3780
1595877725,0.6715,-0.6080,0.0498,130.0610,-27.1341,22.4390
1595877725,0.6786,-0.6180,0.0249,128.3537,-43.8415,22.8049
1595877725,0.6912,-0.6365,-0.0486,126.7073,-52.3171,24.8171
1595877725,0.6740,-0.6669,-0.0434,125.0000,-54.3293,25.4268
1595877725,0.6542,-0.5599,-0.1770,117.9878,-70.9146,27.7439
1595877725,0.7703,-0.5718,-0.2122,112.9878,-88.0488,27.9268
1595877725,0.8071,-0.5815,-0.1547,100.5488,-117.2561,27.0732
1595877725,0.8860,-0.6116,-0.1357,96.4024,-126.2195,27.5610
1595877725,0.9881,-0.6445,0.0796,92.8659,-127.1951,26.5854
1595877725,0.8942,-0.5934,0.1111,96.6463,-114.2683,27.3171
1595877725,0.8469,-0.6190,0.1133,100.9756,-97.1951,27.6829
1595877725,0.8356,-0.6839,0.1648,103.9634,-86.4024,25.0000
1595877725,0.7881,-0.6336,0.2115,110.8537,-87.5610,21.8902
1595877725,0.7119,-0.5788,0.2351,118.4756,-87.0732,22.5610
1595877725,0.6824,-0.5688,0.2100,122.6829,-86.3415,21.3415
1595877725,0.7195,-0.5858,0.1762,125.3659,-93.4756,17.6829
1595877725,0.7472,-0.5909,0.1598,127.7439,-104.5122,14.3902
1595877725,0.7515,-0.5729,0.1498,128.7805,-114.2073,12.6220
1595877725,0.8416,-0.5856,0.1494,127.9268,-122.4390,11.2195
1595877725,1.0555,-0.6627,0.1917,128.3537,-126.4024,9.3293
1595877725,1.2357,-0.6924,0.3182,135.7927,-109.2073,8.2317
1595877725,1.2455,-0.6301,0.3677,153.1098,-58.4756,10.9146
1595877725,0.9111,-0.6256,0.3605,165.8537,18.9634,15.7317
1595877725,0.5224,-0.5936,0.2447,165.2439,80.7317,21.4024
1595877725,0.3373,-0.4584,0.1553,162.6219,88.8415,24.5732
1595877725,0.5435,-0.4028,0.1128,156.4634,30.6098,25.4878
1595877725,0.8212,-0.4830,0.1614,148.6585,-52.5610,21.2195
1595877725,0.8483,-0.5213,0.1588,140.0610,-89.8171,17.5610
1595877725,0.8549,-0.5221,0.1721,126.4634,-80.7927,18.4756
1595877725,0.9335,-0.5140,0.2513,118.3537,-66.4634,16.2805
1595877725,0.8871,-0.5413,0.3208,115.8537,-60.1829,17.8659
1595877725,0.8133,-0.5880,0.3457,110.9146,-60.0000,21.9512
1595877725,0.7578,-0.5594,0.3304,104.3293,-74.8781,24.4512
1595877725,0.7111,-0.5169,0.2803,97.8659,-108.9634,22.0122
1595877725,0.7102,-0.5129,0.2345,89.8171,-156.4024,16.8902
1595877725,0.7328,-0.5338,0.1868,80.9146,-202.2561,11.8902
1595877725,0.7936,-0.5189,0.1290,71.2195,-236.4025,7.4390
1595877725,0.9677,-0.5054,0.0663,68.2927,-259.6342,1.1585
1595877725,1.1413,-0.4686,-0.0101,67.9878,-270.9146,-2.9268
1595877725,1.2029,-0.3835,-0.0142,69.0244,-267.2561,-7.3780
1595877725,1.1878,-0.3239,0.0518,70.5488,-252.1342,-14.4512
1595877725,1.4080,-0.3681,0.0275,70.9146,-231.0366,-19.4512
1595877725,1.4308,-0.3420,-0.0496,74.6951,-184.2073,-19.2073
1595877725,1.0027,-0.2084,-0.1313,78.1098,-107.7439,-12.1341
1595877726,0.7295,-0.2649,-0.0925,75.0000,-63.3537,-8.9634
1595877726,0.8487,-0.3356,-0.0232,68.7805,-87.6220,-12.8049
1595877726,0.9998,-0.3205,0.0539,67.3781,-126.6463,-11.1585
1595877726,0.8455,-0.3357,0.1102,70.5488,-135.6707,-12.2561
1595877726,0.7677,-0.3463,0.2677,69.3902,-145.4268,-16.9512
1595877726,1.1204,-0.2306,0.0569,70.7317,-186.0366,-22.5000
1595877726,1.7355,-0.1205,-0.4913,75.3659,-222.6829,-30.0000
1595877726,1.6407,-0.2371,-0.4316,78.2317,-197.4390,-42.1951
1595877726,0.8938,-0.2313,-0.3874,80.0000,-110.3049,-43.1098
1595877726,0.6157,-0.1666,-0.3341,76.5244,-41.5244,-33.7195
1595877726,0.7018,-0.3069,0.0126,68.5976,-48.0488,-36.9512
1595877726,0.8097,-0.2483,-0.1406,67.1951,-89.4512,-42.7439
1595877726,0.8158,-0.1976,-0.2687,66.2195,-111.6463,-45.9146
1595877726,0.8287,-0.2068,-0.2559,66.3415,-118.7805,-49.6951
1595877726,0.7428,-0.1986,-0.2468,65.9756,-117.6220,-47.1951
1595877726,0.7746,-0.2267,-0.2574,65.2439,-117.1341,-45.2439
1595877726,0.7943,-0.2155,-0.2786,64.5732,-125.0000,-47.0732
1595877726,0.7860,-0.1875,-0.3153,64.3293,-133.2927,-48.4146
1595877726,0.8694,-0.2191,-0.3193,64.2683,-141.1585,-49.8781
1595877726,0.8712,-0.1982,-0.2983,64.1463,-144.1463,-50.6098
1595877726,0.8843,-0.1812,-0.3051,65.1220,-138.1707,-49.4512
1595877726,0.9276,-0.2484,-0.2698,67.0122,-124.6951,-48.5976
1595877726,0.9354,-0.2734,-0.2435,69.1463,-108.8415,-46.8902
1595877726,0.9420,-0.2601,-0.2316,72.1951,-95.9756,-45.0000
1595877726,0.9381,-0.2358,-0.2530,75.6707,-87.2561,-45.1829
1595877726,0.9550,-0.2112,-0.2906,77.8659,-78.4146,-44.8780
1595877726,0.9605,-0.1926,-0.3001,78.9634,-72.1341,-44.5732
1595877726,0.9401,-0.1528,-0.3054,79.2073,-73.0488,-45.4878
1595877726,0.9249,-0.1215,-0.3045,78.7195,-81.8293,-46.4634
1595877726,0.9110,-0.1024,-0.2966,77.7439,-92.8659,-47.5000
1595877726,0.9568,-0.1118,-0.3004,76.8293,-103.0488,-47.9878
1595877726,0.9780,-0.1298,-0.2975,76.0976,-112.8049,-48.1707
1595877726,0.9358,-0.1161,-0.3220,75.5488,-121.5244,-48.4756
1595877726,0.9286,-0.1242,-0.3640,74.8171,-130.7317,-49.1463
1595877726,0.9667,-0.1389,-0.3763,72.7439,-140.9756,-50.6098
1595877726,1.0326,-0.1461,-0.3599,70.0000,-146.4024,-51.2805
1595877726,1.0967,-0.1498,-0.3481,67.6829,-142.0122,-50.7927
1595877726,1.1113,-0.1469,-0.3331,66.4634,-129.2073,-50.5488
1595877726,1.1055,-0.1374,-0.3108,65.9756,-112.8049,-50.3659
1595877726,1.1354,-0.1328,-0.2977,65.9146,-98.2927,-50.2439
1595877726,1.1313,-0.1335,-0.2950,66.5854,-83.8415,-50.8537
1595877726,1.0997,-0.1251,-0.2954,67.5610,-68.8415,-51.2195
1595877726,1.0775,-0.1221,-0.2851,67.6220,-58.3537,-51.2805
1595877726,1.0645,-0.1232,-0.2790,66.6463,-52.8049,-52.0732
1595877726,1.0319,-0.1146,-0.2673,65.7927,-46.8293,-51.7683
1595877726,1.0052,-0.0920,-0.2883,65.0610,-40.4878,-50.5488
1595877726,1.0086,-0.0844,-0.3107,63.8415,-36.0976,-49.0244
1595877726,1.0408,-0.0950,-0.3031,62.1341,-33.2927,-46.7683
1595877726,1.0373,-0.0958,-0.3135,61.1585,-26.5854,-43.3537
1595877726,1.0225,-0.1114,-0.3420,60.1829,-18.1098,-39.5732
1595877726,1.0157,-0.1115,-0.3665,58.4146,-11.4024,-36.0976
1595877726,1.0038,-0.0956,-0.3878,56.4634,-6.0366,-32.0732
1595877726,0.9958,-0.1017,-0.3805,54.6341,-0.3659,-27.9268
1595877726,0.9765,-0.1152,-0.3635,52.0732,5.3659,-25.0610
1595877726,0.9698,-0.1003,-0.3636,50.1829,11.2805,-21.3415
1595877726,0.9611,-0.0944,-0.3769,49.3293,17.5000,-17.1341
1595877726,0.9528,-0.1041,-0.3824,47.9268,21.8293,-14.0244
1595877726,0.9586,-0.1113,-0.3952,46.1585,22.6829,-10.7317
1595877726,0.9664,-0.1285,-0.4007,44.6341,22.3171,-7.1951
1595877726,0.9517,-0.1392,-0.4092,43.1098,22.6220,-4.0854
1595877726,0.9448,-0.1450,-0.4353,41.5854,22.0732,-1.2805
1595877726,0.9589,-0.1614,-0.4677,39.3293,20.9756,1.5244
1595877726,0.9607,-0.1720,-0.4878,36.5854,21.1585,4.4512
1595877726,0.9543,-0.1948,-0.4826,34.2683,23.1707,7.0732
1595877726,0.9690,-0.2223,-0.4781,31.8902,25.9146,9.8780
1595877726,0.9808,-0.2461,-0.4783,30.4268,29.3293,13.7805
1595877726,0.9907,-0.2684,-0.4875,30.1829,32.6220,17.3171
1595877726,0.9946,-0.2930,-0.5125,31.0976,34.6341,20.7927
1595877726,0.9888,-0.3291,-0.5428,32.5610,34.8171,24.6951
1595877726,0.9967,-0.3685,-0.5789,33.9024,31.4634,28.5976
1595877726,1.0025,-0.4001,-0.6100,35.5488,24.0854,32.3780
1595877726,1.0095,-0.4103,-0.6276,36.1585,16.4634,36.8902
1595877726,1.0041,-0.4120,-0.6053,35.9146,9.9390,41.6463
1595877726,0.9823,-0.4150,-0.5440,33.8415,2.5610,45.7317
1595877726,0.9645,-0.4077,-0.4707,29.3293,-3.8415,48.8415
1595877726,0.9426,-0.3835,-0.4031,24.8780,-6.8902,49.0854
1595877726,0.9208,-0.3527,-0.3438,21.1585,-6.3415,46.4634
1595877726,0.9080,-0.3304,-0.3109,18.7805,-2.9878,42.3780
1595877726,0.9066,-0.3235,-0.3080,17.9878,3.1707,38.4756
1595877726,0.8914,-0.3278,-0.3306,19.0244,12.0732,36.0976
1595877726,0.8724,-0.3414,-0.3769,21.0366,21.6463,35.3659
1595877726,0.8790,-0.3624,-0.4199,22.9268,28.7195,35.7927
1595877726,0.8912,-0.3880,-0.4517,24.6951,32.7439,35.7317
1595877726,0.9157,-0.3998,-0.4876,25.4878,35.3659,35.3049
1595877726,0.9332,-0.4072,-0.5020,25.0000,36.1585,33.7195
1595877726,0.9022,-0.4004,-0.4993,23.3537,35.9756,31.4634
1595877726,0.8669,-0.3876,-0.4875,20.1829,36.3415,29.5732
1595877726,0.8585,-0.3781,-0.4550,15.7927,34.0854,27.6220
1595877726,0.8354,-0.3589,-0.4042,10.9756,30.2439,26.2805
1595877726,0.8051,-0.3372,-0.3542,7.0732,27.1951,26.0366
1595877726,0.7909,-0.3170,-0.3378,4.3293,23.7195,26.0366
1595877726,0.8029,-0.3019,-0.3158,2.0732,18.5366,26.5244
1595877726,0.8133,-0.2852,-0.2994,0.9146,13.1098,27.5610
1595877726,0.8082,-0.2798,-0.3019,-0.1829,10.0610,28.3537
1595877726,0.8304,-0.2906,-0.3157,-2.0122,8.1098,28.4146
1595877726,0.8666,-0.2961,-0.3148,-3.7195,5.4878,27.8659
1595877726,0.8812,-0.2929,-0.3136,-5.2439,3.8415,27.0732
1595877726,0.8616,-0.2897,-0.3254,-6.2805,6.5854,26.7073
1595877726,0.8598,-0.2916,-0.3342,-7.4390,10.1829,26.5854
1595877726,0.8970,-0.3005,-0.3279,-9.2683,11.8293,26.7073
1595877726,0.9048,-0.3083,-0.3138,-11.2195,14.5732,27.1341
1595877726,0.8874,-0.3112,-0.3010,-12.9268,20.2439,27.9878
1595877726,0.8848,-0.3101,-0.2980,-14.7561,25.7927,29.0854
1595877726,0.9037,-0.3100,-0.2943,-16.7683,28.8415,30.0000
1595877726,0.9009,-0.3110,-0.2896,-18.5366,31.0366,30.7317
1595877726,0.8926,-0.3224,-0.2734,-20.3049,33.7195,31.0976
1595877726,0.8996,-0.3256,-0.2692,-21.7683,36.0976,31.4024
1595877727,0.9047,-0.3339,-0.2708,-22.5000,38.7805,31.9512
1595877727,0.8934,-0.3376,-0.2704,-23.4756,41.8293,32.0732
1595877727,0.8914,-0.3417,-0.2833,-23.9634,44.7561,32.3780
1595877727,0.9092,-0.3535,-0.2896,-24.7561,46.3415,32.8659
1595877727,0.9072,-0.3563,-0.2878,-25.9146,46.8293,32.6829
1595877727,0.8890,-0.3601,-0.2836,-27.2561,48.1098,32.9268
1595877727,0.8816,-0.3688,-0.2756,-28.6585,50.5488,33.5366
1595877727,0.8763,-0.3693,-0.2755,-30.1220,52.3781,33.6585
1595877727,0.8755,-0.3760,-0.2690,-31.8293,52.0732,33.1098
1595877727,0.8853,-0.3838,-0.2626,-33.5976,50.3659,32.3780
1595877727,0.8741,-0.3836,-0.2549,-34.7561,50.7927,31.7683
1595877727,0.8544,-0.3826,-0.2426,-35.4878,53.9634,31.2195
1595877727,0.8348,-0.3884,-0.2307,-36.0366,57.6829,31.4024
1595877727,0.8353,-0.3920,-0.2336,-36.7073,60.0610,31.7073
1595877727,0.8606,-0.3978,-0.2414,-37.5610,61.3415,32.0122
1595877727,0.8630,-0.4153,-0.2421,-38.2317,61.7073,31.9512
1595877727,0.8539,-0.4303,-0.2401,-39.3293,61.5854,31.5244
1595877727,0.8651,-0.4344,-0.2407,-40.1829,61.0976,31.0366
1595877727,0.8705,-0.4401,-0.2422,-41.2805,60.4878,29.9390
1595877727,0.8503,-0.4401,-0.2410,-42.6220,61.0976,28.6585
1595877727,0.8465,-0.4467,-0.2422,-43.6585,62.6220,28.1707
1595877727,0.8493,-0.4586,-0.2289,-44.8171,63.8415,28.2317
1595877727,0.8332,-0.4586,-0.2114,-45.6707,64.3902,28.4146
1595877727,0.8199,-0.4578,-0.2120,-46.2805,65.6707,29.3293
1595877727,0.8189,-0.4681,-0.2056,-47.4390,65.6707,30.3049
1595877727,0.8345,-0.4737,-0.1924,-48.5366,62.4390,29.9390
1595877727,0.8348,-0.4717,-0.1820,-49.3293,59.3902,29.6951
1595877727,0.8154,-0.4627,-0.1871,-50.1220,58.2927,29.8171
1595877727,0.8146,-0.4718,-0.2051,-51.0366,58.1707,30.1220
1595877727,0.8593,-0.5007,-0.2164,-52.0732,56.7073,30.7317
1595877727,0.8784,-0.5251,-0.2319,-52.8659,56.1585,30.8537
1595877727,0.8517,-0.5553,-0.2441,-52.9878,60.9146,30.6707
1595877727,0.8748,-0.6015,-0.2477,-53.2317,65.1829,31.7683
1595877727,0.9294,-0.6384,-0.2435,-52.2561,65.1829,32.6220
1595877727,0.9249,-0.6491,-0.2572,-49.7561,66.5244,32.6220
1595877727,0.8646,-0.6379,-0.2919,-48.2317,72.3781,32.8659
1595877727,0.8463,-0.6461,-0.2928,-47.6829,77.8049,34.3902
1595877727,0.8487,-0.6564,-0.2661,-47.8659,79.2073,35.7927
1595877727,0.8321,-0.6567,-0.2495,-47.7439,81.2195,36.5244
1595877727,0.7834,-0.6620,-0.2365,-47.7439,85.9756,37.3780
1595877727,0.7366,-0.6536,-0.2635,-47.4390,89.0244,37.6829
1595877727,0.7234,-0.6574,-0.3014,-46.5244,89.2683,38.6585
1595877727,0.7300,-0.6942,-0.3006,-46.5244,87.6220,40.2439
1595877727,0.7701,-0.7297,-0.3031,-47.1341,83.7195,41.8902
1595877727,0.7831,-0.7352,-0.3143,-46.9512,81.1585,44.3902
1595877727,0.7529,-0.7245,-0.3166,-46.5854,82.3781,48.0488
1595877727,0.7119,-0.7155,-0.3152,-46.0366,86.0976,51.0366
1595877727,0.7045,-0.7385,-0.2996,-45.6707,88.1707,51.3415
1595877727,0.7327,-0.7713,-0.2612,-45.6098,86.8902,50.0000
1595877727,0.7358,-0.7781,-0.2327,-43.7195,84.9390,47.7439
1595877727,0.7295,-0.7722,-0.2172,-40.7927,84.4512,44.4512
1595877727,0.7278,-0.7571,-0.2281,-36.7683,85.1220,40.1220
1595877727,0.6826,-0.7426,-0.2296,-32.7439,87.3781,37.0122
1595877727,0.6308,-0.7386,-0.2206,-29.2073,91.2195,36.2805
1595877727,0.5748,-0.7344,-0.2335,-25.4878,93.2317,37.3171
1595877727,0.5364,-0.7269,-0.2628,-22.3780,91.2805,38.4146
1595877727,0.5666,-0.7356,-0.2482,-20.3049,85.6707,39.6341
1595877727,0.6268,-0.7587,-0.2148,-18.1098,80.1829,41.8293
1595877727,0.6382,-0.7869,-0.1881,-16.7683,77.5610,44.0854
1595877727,0.6182,-0.7927,-0.1732,-16.3415,75.1220,43.5366
1595877727,0.6186,-0.7764,-0.1670,-15.6098,70.5488,41.2805
1595877727,0.5957,-0.7585,-0.1769,-13.9024,66.5244,38.0488
1595877727,0.5367,-0.7534,-0.1666,-12.8049,63.7805,34.2683
1595877727,0.4973,-0.7479,-0.1446,-12.3780,60.4878,32.7439
1595877727,0.4673,-0.7455,-0.1494,-11.4634,57.9878,34.2683
1595877727,0.4656,-0.7516,-0.1469,-10.7927,55.9756,36.2195
1595877727,0.5095,-0.7731,-0.1307,-10.2439,53.2927,38.9634
1595877727,0.5054,-0.7859,-0.1223,-9.5122,50.3659,40.6098
1595877727,0.4485,-0.7823,-0.1063,-9.5732,48.2317,41.7073
1595877727,0.4334,-0.7825,-0.0930,-9.1463,44.6341,43.0488
1595877727,0.4439,-0.7843,-0.0879,-7.4390,39.2073,43.7805
1595877727,0.4420,-0.7891,-0.0872,-5.6098,34.8171,44.1463
1595877727,0.4442,-0.8107,-0.0965,-4.0854,33.8415,45.4878
1595877727,0.4700,-0.8515,-0.1025,-3.6585,33.7195,47.3171
1595877727,0.4914,-0.8643,-0.0900,-3.1098,34.4512,48.3537
1595877727,0.4993,-0.8629,-0.0671,-1.3415,37.3171,49.2073
1595877727,0.4915,-0.8636,-0.0590,-0.9756,40.6707,49.5732
1595877727,0.4487,-0.8632,-0.0554,-1.4024,41.2805,48.4146
1595877727,0.4233,-0.8495,-0.0308,-2.6829,37.9268,45.7927
1595877727,0.4542,-0.8312,0.0005,-2.6829,34.0854,43.2317
1595877727,0.4691,-0.8434,-0.0110,-2.1341,32.4390,40.9146
1595877727,0.4395,-0.8708,-0.0289,-4.0244,33.6585,39.3902
1595877727,0.4189,-0.8886,-0.0287,-5.1220,35.1829,39.5122
1595877727,0.4272,-0.9089,-0.0301,-5.3659,35.0610,40.7317
1595877727,0.4093,-0.9139,-0.0252,-6.0366,34.3902,41.0366
1595877727,0.3943,-0.9050,0.0089,-7.6220,32.9878,40.9146
1595877727,0.3979,-0.8876,0.0314,-7.8049,30.3049,40.9146
1595877727,0.4182,-0.8960,0.0173,-7.7439,27.9268,39.9390
1595877727,0.4398,-0.8980,0.0285,-7.5000,23.8415,38.4146
1595877727,0.4282,-0.8756,0.0249,-5.9756,20.8537,37.6829
1595877727,0.3752,-0.8852,0.0149,-6.6463,22.6220,36.4634
1595877727,0.3868,-0.9117,0.0310,-8.9634,26.4634,34.9390
1595877727,0.4203,-0.9258,0.0602,-9.2683,26.8293,34.8171
1595877727,0.3962,-0.9288,0.0657,-8.4146,27.6829,34.8780
1595877727,0.4142,-0.9478,0.0526,-8.6585,29.2683,34.8780
1595877727,0.4372,-0.9724,0.0536,-8.4756,26.4634,34.6951
1595877727,0.4016,-0.9684,0.0659,-8.1098,21.9512,34.3902
1595877727,0.3600,-0.9453,0.0815,-7.8659,19.2073,33.8415
1595877727,0.3859,-0.9558,0.0870,-7.0732,16.0976,33.2317
1595877727,0.4250,-0.9660,0.1016,-6.4024,11.5244,31.7073
1595877727,0.4224,-0.9499,0.1169,-5.5488,8.3537,30.8537
1595877727,0.4274,-0.9425,0.1286,-5.4878,8.8415,30.0000
1595877728,0.4445,-0.9553,0.1221,-5.4268,10.1220,28.4146
1595877728,0.4492,-0.9593,0.1146,-6.2195,10.7927,26.5244
1595877728,0.4220,-0.9574,0.1248,-7.2561,12.3780,24.7561
1595877728,0.4106,-0.9542,0.1276,-8.2317,15.0610,23.0488
1595877728,0.4233,-0.9697,0.1284,-8.6585,17.2561,21.3415
1595877728,0.4142,-0.9672,0.1366,-8.7805,17.7439,19.5732
1595877728,0.3953,-0.9512,0.1426,-7.9878,18.1707,17.8049
1595877728,0.4308,-0.9724,0.1380,-6.5854,18.3537,16.3415
1595877728,0.4336,-0.9693,0.1265,-4.7561,16.2195,14.5732
1595877728,0.3963,-0.9524,0.0981,-3.1098,14.4512,13.6585
1595877728,0.4004,-0.9686,0.0861,-2.8659,13.9024,13.4756
1595877728,0.4370,-0.9869,0.0898,-3.0488,10.9146,13.2927
1595877728,0.4305,-0.9834,0.1002,-2.9268,9.2073,13.6585
1595877728,0.4026,-0.9689,0.0936,-3.2317,11.4024,14.5732
1595877728,0.3972,-0.9625,0.0901,-3.9024,13.4146,15.1220
1595877728,0.3983,-0.9513,0.1171,-4.2683,13.9634,14.8780
1595877728,0.3987,-0.9473,0.1363,-4.2073,14.8780,14.2073
1595877728,0.3831,-0.9392,0.1282,-4.2683,16.5244,13.5976
1595877728,0.3877,-0.9402,0.1125,-4.0244,15.9146,12.1951
1595877728,0.4179,-0.9457,0.1096,-2.9268,13.6585,10.9756
1595877728,0.4016,-0.9532,0.1165,-1.0366,13.9634,10.1829
1595877728,0.3707,-0.9549,0.1177,0.4268,16.7683,10.1829
1595877728,0.3757,-0.9531,0.1200,1.4634,17.3171,10.8537
1595877728,0.3688,-0.9426,0.1185,2.6829,16.1585,10.6707
1595877728,0.3630,-0.9484,0.1117,2.7439,15.0610,10.8537
1595877728,0.3358,-0.9354,0.1096,1.9512,12.4390,11.5854
1595877728,0.3365,-0.9279,0.1179,1.0976,8.2927,11.8902
1595877728,0.3638,-0.9246,0.1183,0.8537,4.8171,11.4634
1595877728,0.2828,-0.9183,0.1051,1.1585,3.2317,10.9756
1595877728,0.0997,-0.8257,0.0714,0.1220,3.4756,11.4024
1595877728,0.4869,-0.9944,0.1215,-2.6220,2.5000,17.0732
1595877728,0.5034,-0.9995,0.1588,-0.4878,-12.4390,10.2439
1595877728,0.1929,-0.9020,0.1198,0.7927,-10.3049,7.7439
1595877728,0.3248,-0.9779,0.1192,-3.2317,0.0610,14.5122
1595877728,0.4524,-0.9702,0.1295,-0.4878,-13.1707,10.7927
1595877728,0.3776,-0.9397,0.1191,0.5488,-18.3537,9.4512
1595877728,0.3656,-0.9509,0.1074,-1.7073,-13.5976,10.4268
1595877728,0.4174,-0.9513,0.1123,-1.7073,-13.9024,10.3659
1595877728,0.4306,-0.9520,0.1357,-0.7927,-14.6341,9.5732
1595877728,0.4084,-0.9448,0.1598,-0.2439,-9.8171,10.0000
1595877728,0.4376,-0.9583,0.1671,1.6463,0.7317,9.3902
1595877728,0.4548,-0.9694,0.2014,4.0854,12.3171,8.5366
1595877728,0.3582,-0.9388,0.2444,7.8049,24.9390,8.2927
1595877728,0.3509,-0.9535,0.2411,10.6098,34.4512,7.0122
1595877728,0.4055,-0.9586,0.2202,13.8415,35.5488,5.6707
1595877728,0.3687,-0.9507,0.1882,17.4390,36.8293,3.8415
1595877728,0.3753,-0.9780,0.1617,16.0366,38.2317,2.9268
1595877728,0.4304,-0.9761,0.1532,14.1463,31.6463,2.8049
1595877728,0.4697,-0.9742,0.1591,13.3537,23.9634,3.4146
1595877728,0.4987,-1.0129,0.1929,11.5244,21.9512,4.6341
1595877728,0.4848,-1.0114,0.2101,11.4024,25.7927,5.4268
1595877728,0.4268,-0.9667,0.2377,17.0732,37.4390,4.6341
1595877728,0.4086,-0.9788,0.2781,23.8415,53.8415,1.0976
1595877728,0.3945,-0.9837,0.2967,28.7805,68.4146,-3.0488
1595877728,0.2836,-0.9229,0.2687,33.7195,79.9390,-5.7317
1595877728,0.2021,-0.8837,0.2315,36.4634,89.4512,-8.2927
1595877728,0.2646,-0.8968,0.1909,35.1829,94.2683,-8.7805
1595877728,0.3877,-0.9332,0.1677,33.9634,91.9512,-9.0854
1595877728,0.4470,-0.9238,0.1761,31.5854,87.8659,-10.4878
1595877728,0.2531,-0.8856,0.1758,24.5732,81.6463,-9.6341
1595877728,0.2889,-0.9579,0.2119,13.1098,68.7805,-6.5854
1595877728,0.4121,-0.9738,0.2576,14.2683,52.5610,-5.3659
1595877728,0.4402,-0.9423,0.2870,19.3902,50.9756,-6.4024
1595877728,0.4188,-0.9420,0.2728,19.0244,66.3415,-5.3049
1595877728,0.3507,-0.9145,0.2525,19.6341,82.3781,-9.3902
1595877728,0.2710,-0.8937,0.2181,19.6341,90.8537,-11.7073
1595877728,0.3440,-0.9224,0.1783,18.2317,92.0122,-13.2927
1595877728,0.5278,-0.9816,0.1770,17.3780,86.8902,-15.4878
1595877728,0.6070,-0.9632,0.2274,19.4512,87.9268,-18.4146
1595877728,0.5112,-0.9094,0.2514,22.5000,107.5000,-20.6098
1595877728,0.4230,-0.9448,0.2299,20.5488,137.1951,-19.2073
1595877728,0.4030,-0.9953,0.2628,20.2439,160.0000,-20.9756
1595877728,0.3143,-0.8834,0.3000,30.3659,171.0366,-22.4390
1595877728,0.0338,-0.7127,0.2540,38.2317,182.5000,-18.6585
1595877728,-0.1145,-0.7023,0.1770,29.2683,189.1463,-17.3171
1595877728,-0.0847,-0.7385,0.1780,22.9268,170.9756,-18.2927
1595877728,0.0145,-0.7913,0.3273,26.2805,140.1219,-16.7073
1595877728,0.1012,-0.8080,0.3298,27.8659,117.6829,-6.0976
1595877728,0.1659,-0.7998,0.2688,26.4634,105.9146,-4.8780
1595877728,0.1922,-0.7905,0.2858,21.2195,99.2683,-10.2439
1595877728,0.1493,-0.7610,0.3662,19.0244,95.1829,-7.2561
1595877728,0.1511,-0.7681,0.3967,16.1585,93.1098,-1.0976
1595877728,0.1237,-0.7802,0.3864,10.6707,88.4146,-1.5854
1595877728,0.1194,-0.7983,0.3996,6.3415,79.0854,-5.3049
1595877728,0.1146,-0.8141,0.3731,3.7195,66.8293,-2.1951
1595877728,0.1243,-0.8384,0.3624,1.4634,53.9634,-0.5488
1595877728,0.1740,-0.8467,0.3486,0.3049,40.4878,-0.9756
1595877728,0.1834,-0.8331,0.2971,2.3171,33.1098,-0.6707
1595877728,0.1907,-0.8720,0.2781,1.0366,35.5488,0.0610
1595877728,0.2015,-0.8989,0.3164,-0.1829,43.5976,1.5244
1595877728,0.1534,-0.8880,0.3532,0.7317,53.1098,6.0366
1595877728,0.1133,-0.8921,0.3655,1.3415,63.2317,10.4878
1595877728,0.0506,-0.8912,0.3834,0.9756,68.5366,10.7317
1595877728,0.0394,-0.8837,0.3661,0.2439,63.1707,7.8659
1595877728,0.0468,-0.8943,0.3009,-1.9512,48.8415,5.1220
1595877728,0.0804,-0.9048,0.2955,-2.9268,31.7683,2.1951
1595877728,0.1194,-0.8903,0.3058,-3.7805,17.3171,3.9024
1595877728,0.1458,-0.8760,0.2934,-4.9390,7.0122,3.0488
1595877728,0.1204,-0.8549,0.2483,-5.0610,6.7073,3.7195
1595877728,0.0102,-0.8248,0.2217,-5.0000,19.6951,6.5854
1595877728,-0.0742,-0.8315,0.2589,-6.5244,32.0732,9.3293
1595877728,-0.0842,-0.8522,0.3421,-7.0732,32.5000,11.7073
1595877728,0.0740,-0.8907,0.3596,-6.1585,21.4024,16.3415
1595877729,0.1268,-0.8676,0.3937,-5.2439,4.8171,15.3049
1595877729,0.1195,-0.8453,0.4427,-5.3659,-2.9878,11.3415
1595877729,0.1945,-0.8793,0.4661,-7.9878,-3.2927,13.0488
1595877729,0.2379,-0.8621,0.4164,-7.3780,-2.2561,7.5000
1595877729,0.1764,-0.8665,0.3604,-5.0000,5.9756,-3.2317
1595877729,0.1340,-0.8950,0.3625,-5.9146,16.7073,-6.3415
1595877729,0.0982,-0.8975,0.4139,-4.5732,24.8780,-3.7195
1595877729,0.0020,-0.8673,0.4512,-3.3537,29.9390,-5.7317
1595877729,-0.0806,-0.8555,0.4507,-3.2927,32.2561,-6.4024
1595877729,-0.1061,-0.8548,0.4193,-3.6585,28.5976,-3.4146
1595877729,-0.0172,-0.8938,0.3928,-2.9268,18.5366,-0.5488
1595877729,0.0786,-0.9104,0.3790,-3.2927,6.0976,1.4024
1595877729,0.1199,-0.8986,0.3778,-4.4512,-2.0122,3.9024
1595877729,0.1152,-0.9092,0.3790,-8.4146,0.6098,7.7439
1595877729,0.1038,-0.9686,0.4930,-12.6829,7.5000,10.6707
1595877729,0.0873,-0.9948,0.5353,-11.9512,11.5244,13.4146
1595877729,0.0840,-0.9846,0.5283,-5.4268,11.3415,14.8780
1595877729,0.0734,-0.9750,0.5283,-3.8415,1.4024,11.7683
1595877729,0.0543,-0.9702,0.5281,-1.7683,-9.2073,10.7317
1595877729,0.0276,-0.9855,0.5029,0.1220,-17.3171,11.6463
1595877729,0.0360,-0.9979,0.4719,1.0366,-26.8902,10.5488
1595877729,0.0278,-0.9871,0.4627,2.9878,-38.5976,9.3293
1595877729,0.0042,-1.0071,0.4583,3.3537,-45.4268,8.9634
1595877729,-0.0060,-1.0273,0.4199,3.8415,-50.8537,10.1220
1595877729,0.0060,-1.0284,0.3856,7.0122,-56.9512,10.6098
1595877729,0.0318,-1.0234,0.3508,8.4146,-62.1341,11.4024
1595877729,0.0737,-1.0180,0.3259,7.3171,-67.9878,9.8780
1595877729,0.1304,-1.0045,0.3331,5.0000,-73.7805,6.6463
1595877729,0.1483,-0.9799,0.3506,3.2927,-76.3415,4.1463
1595877729,0.1381,-0.9672,0.3647,1.5244,-72.1951,2.5000
1595877729,0.1370,-0.9620,0.3590,1.2805,-64.5122,1.0366
1595877729,0.1556,-0.9679,0.3382,1.2805,-56.3415,-0.5488
1595877729,0.1681,-0.9713,0.3174,0.7317,-49.1463,-2.2561
1595877729,0.1481,-0.9475,0.2906,0.3049,-40.7927,-3.4146
1595877729,0.1117,-0.9260,0.2617,-1.4024,-30.5488,-4.2683
1595877729,0.0958,-0.9221,0.2345,-4.3902,-22.8659,-4.4512
1595877729,0.1147,-0.9212,0.2294,-8.1098,-20.0000,-4.3293
1595877729,0.1537,-0.9164,0.2278,-12.7439,-19.6341,-4.2683
1595877729,0.1882,-0.9017,0.2119,-17.0732,-18.5976,-3.5976
1595877729,0.1866,-0.8813,0.1991,-20.0610,-12.9878,-2.6220
1595877729,0.1619,-0.8846,0.2003,-23.3537,-2.4390,-1.5244
1595877729,0.1511,-0.9039,0.2018,-26.7683,9.1463,1.2195
1595877729,0.1709,-0.9180,0.2004,-29.8171,19.2073,4.6341
1595877729,0.1980,-0.9241,0.1976,-32.0732,27.4390,7.5000
1595877729,0.1996,-0.9099,0.1854,-34.1463,36.4634,10.2439
1595877729,0.1879,-0.9006,0.1667,-35.4878,48.2317,13.8415
1595877729,0.1940,-0.9071,0.1486,-38.4146,60.6707,17.4390
1595877729,0.2166,-0.9204,0.1625,-42.1951,69.6341,20.4878
1595877729,0.2204,-0.9058,0.1873,-43.7805,75.1220,23.9024
1595877729,0.2006,-0.8977,0.1922,-43.6585,81.6463,27.9878
1595877729,0.1868,-0.9159,0.1813,-45.2439,89.0244,31.2195
1595877729,0.2039,-0.9210,0.1658,-46.8293,93.2317,33.0488
1595877729,0.2080,-0.9048,0.1569,-47.0122,95.5488,34.0854
1595877729,0.1737,-0.9003,0.1502,-47.8049,100.0000,35.4878
1595877729,0.1557,-0.9097,0.1612,-50.2439,103.1098,37.5610
1595877729,0.1821,-0.9111,0.1759,-51.9512,100.7927,39.0244
1595877729,0.2253,-0.9246,0.1959,-53.2317,95.9146,39.1463
1595877729,0.2363,-0.9377,0.2293,-54.5732,92.5610,38.9634
1595877729,0.2255,-0.9402,0.2442,-54.6951,91.9512,39.0854
1595877729,0.2234,-0.9399,0.2397,-54.7561,91.1585,38.6585
1595877729,0.2326,-0.9357,0.2269,-54.8171,88.2927,37.1341
1595877729,0.2337,-0.9156,0.2095,-53.5976,84.8171,34.9390
1595877729,0.2233,-0.9017,0.1949,-53.1707,81.8902,32.9878
1595877729,0.2241,-0.9018,0.1862,-53.7195,79.4512,31.0976
1595877729,0.2305,-0.9041,0.1818,-53.5366,77.1951,29.3293
1595877729,0.2155,-0.8998,0.1924,-52.6220,75.6098,27.7439
1595877729,0.2092,-0.8950,0.2023,-51.2195,74.8171,25.4878
1595877729,0.2284,-0.9028,0.2128,-50.0610,73.3537,22.7439
1595877729,0.2464,-0.9048,0.2230,-48.7805,71.0366,19.5122
1595877729,0.2404,-0.8829,0.2252,-46.3415,70.3049,15.6707
1595877729,0.2130,-0.8661,0.2201,-43.6585,71.5854,12.1951
1595877729,0.1868,-0.8691,0.2117,-41.5244,71.7073,9.8171
1595877729,0.1756,-0.8793,0.2087,-39.1463,70.4268,7.2561
1595877729,0.1703,-0.8684,0.2007,-35.7317,69.1463,5.8537
1595877729,0.1506,-0.8450,0.1702,-34.2073,68.2927,5.0610
1595877729,0.1552,-0.8569,0.1407,-34.1463,66.7683,2.5000
1595877729,0.1816,-0.8907,0.1408,-34.8780,61.4024,0.0610
1595877729,0.1768,-0.9011,0.1526,-33.5976,53.6585,-0.7927
1595877729,0.1404,-0.8939,0.1530,-31.0366,48.0488,0.0000
1595877729,0.1035,-0.8929,0.1497,-28.9024,45.7927,1.0976
1595877729,0.1011,-0.9078,0.1369,-27.2561,44.2683,1.5244
1595877729,0.1371,-0.9443,0.1287,-25.4268,43.0488,1.7683
1595877729,0.1470,-0.9717,0.1236,-23.5976,44.2683,2.3171
1595877729,0.1133,-0.9887,0.1206,-20.5488,50.5488,2.3171
1595877729,0.0852,-1.0171,0.1137,-18.4756,59.4512,2.1341
1595877729,0.0610,-1.0201,0.1136,-17.6220,65.4878,3.5366
1595877729,0.0516,-1.0071,0.1227,-17.0732,67.1951,3.5366
1595877729,0.0475,-0.9878,0.1395,-17.0122,65.8537,1.2805
1595877729,0.0405,-0.9587,0.1483,-17.1341,63.7195,-0.7927
1595877729,0.0256,-0.9465,0.1534,-17.3780,63.7805,-2.4390
1595877729,0.0054,-0.9482,0.1642,-17.2561,65.7927,-5.1220
1595877729,-0.0130,-0.9609,0.1806,-16.0976,68.7195,-8.5976
1595877729,-0.0253,-0.9827,0.1998,-14.5122,71.2195,-12.2561
1595877729,-0.0430,-1.0146,0.2241,-12.9878,72.5000,-15.2439
1595877729,-0.0666,-1.0528,0.2423,-10.9756,72.6220,-18.1098
1595877729,-0.0887,-1.0754,0.2582,-7.7439,72.0122,-21.2805
1595877729,-0.0851,-1.0849,0.2539,-4.7561,70.7317,-24.5732
1595877729,-0.0559,-1.1002,0.2589,-2.2561,68.9634,-28.1098
1595877729,-0.0308,-1.0981,0.2613,1.1585,66.6463,-32.5610
1595877729,-0.0244,-1.0835,0.2550,5.7317,66.4634,-35.8537
1595877729,-0.0433,-1.0873,0.2429,10.4268,69.9390,-37.5610
1595877730,-0.0761,-1.0955,0.2314,15.0000,73.5366,-39.4512
1595877730,-0.1047,-1.0878,0.2277,20.8537,74.5732,-41.1585
1595877730,-0.1286,-1.0610,0.2248,27.5610,72.8659,-42.8049
1595877730,-0.1389,-1.0260,0.2279,33.7805,69.1463,-44.6951
1595877730,-0.1285,-0.9908,0.2381,39.3293,64.2073,-46.7073
1595877730,-0.1076,-0.9675,0.2603,44.8171,58.7195,-49.0244
1595877730,-0.0883,-0.9646,0.2779,50.5488,53.7195,-51.3415
1595877730,-0.0847,-0.9722,0.2838,56.0976,49.0854,-53.3537
1595877730,-0.0785,-0.9800,0.2830,60.5488,43.9024,-55.2439
1595877730,-0.0579,-0.9836,0.2795,64.0854,36.8293,-57.5000
1595877730,-0.0075,-0.9749,0.2684,67.9878,29.5122,-59.8171
1595877730,0.0372,-0.9662,0.2516,72.5610,29.1463,-60.4878
1595877730,0.0451,-0.9449,0.2408,76.0366,38.6585,-62.1951
1595877730,0.0346,-0.9363,0.2189,79.0854,52.1951,-63.6585
1595877730,0.0264,-0.9276,0.1757,81.2805,65.5488,-62.9268
1595877730,0.0260,-0.9626,0.1823,80.5488,74.8171,-62.1951
1595877730,0.0089,-0.9777,0.2077,79.2683,76.2195,-61.2805
1595877730,-0.0096,-0.9490,0.2147,80.6707,72.3171,-59.4512
1595877730,-0.0181,-0.9268,0.2280,81.8902,65.0610,-58.0488
1595877730,-0.0311,-0.9178,0.2357,81.1585,54.2073,-57.1341
1595877730,-0.0147,-0.9070,0.2458,79.0244,40.6098,-57.9878
1595877730,0.0362,-0.9025,0.2601,77.5610,26.6463,-58.1098
1595877730,0.0962,-0.8959,0.2737,76.0366,14.9390,-59.5732
1595877730,0.1420,-0.9046,0.2882,75.7317,8.2317,-62.1951
1595877730,0.1428,-0.9108,0.2855,76.0366,6.7683,-64.6341
1595877730,0.1363,-0.9063,0.2694,75.1829,6.2195,-66.1585
1595877730,0.1475,-0.8874,0.2618,73.1098,3.4146,-67.0122
1595877730,0.1649,-0.8604,0.2530,71.0366,-1.6463,-68.4146
1595877730,0.1807,-0.8300,0.2375,69.3902,-6.5244,-70.0000
1595877730,0.1920,-0.8081,0.2259,66.1585,-10.0000,-71.0366
1595877730,0.2048,-0.7933,0.2219,62.1341,-12.6220,-71.2805
1595877730,0.2161,-0.7911,0.2272,58.1098,-14.5122,-70.8537
1595877730,0.2276,-0.7884,0.2272,54.2683,-14.9390,-70.1220
1595877730,0.2338,-0.7864,0.2308,50.4268,-13.9634,-68.9634
1595877730,0.2399,-0.7795,0.2353,45.7317,-12.8049,-67.8049
1595877730,0.2538,-0.7716,0.2374,41.0976,-12.4390,-66.6463
1595877730,0.2665,-0.7605,0.2401,37.0732,-12.1951,-65.2439
1595877730,0.2723,-0.7453,0.2410,32.4390,-11.4634,-63.5366
1595877730,0.2808,-0.7346,0.2399,27.7439,-10.2439,-61.5244
1595877730,0.2869,-0.7302,0.2393,23.4756,-8.1707,-59.2073
1595877730,0.2947,-0.7271,0.2396,19.7561,-5.2439,-56.3415
1595877730,0.2956,-0.7256,0.2408,16.0976,-1.6463,-53.1707
1595877730,0.3006,-0.7316,0.2451,12.5000,2.0122,-49.8171
1595877730,0.3035,-0.7426,0.2496,9.2683,6.3415,-46.2805
1595877730,0.3024,-0.7592,0.2533,6.2195,11.4634,-42.5000
1595877730,0.2964,-0.7678,0.2597,3.3537,16.8293,-38.5366
1595877730,0.2889,-0.7730,0.2634,0.5488,21.2195,-34.6341
1595877730,0.2834,-0.7810,0.2616,-2.6220,23.5366,-31.1585
1595877730,0.2889,-0.7950,0.2667,-5.6098,24.3902,-27.4390
1595877730,0.2977,-0.8018,0.2718,-8.4756,25.6098,-23.8415
1595877730,0.2983,-0.8035,0.2742,-10.6098,27.1341,-20.5488
1595877730,0.2911,-0.8024,0.2720,-12.6220,28.5976,-18.1707
1595877730,0.2961,-0.8050,0.2733,-15.3049,29.7561,-15.9146
1595877730,0.3026,-0.8130,0.2836,-17.4390,29.8171,-13.8415
1595877730,0.3044,-0.8334,0.2927,-18.5976,30.3049,-12.1341
1595877730,0.2983,-0.8719,0.3054,-19.6951,32.3780,-10.1829
1595877730,0.2935,-0.9191,0.3129,-20.2439,35.3049,-7.2561
1595877730,0.2913,-0.9658,0.3207,-20.6707,38.0488,-3.4756
1595877730,0.2956,-1.0045,0.3322,-22.5000,39.6341,1.1585
1595877730,0.3101,-1.0392,0.3549,-24.5732,41.0366,6.5244
1595877730,0.3209,-1.0708,0.3840,-26.5244,43.5366,11.7073
1595877730,0.3195,-1.0921,0.4098,-28.0488,47.3781,16.2195
1595877730,0.3118,-1.1002,0.4327,-29.4512,52.1951,20.0610
1595877730,0.2977,-1.0994,0.4562,-30.9756,56.7683,22.7439
1595877730,0.2864,-1.1034,0.4730,-32.2561,60.0000,24.0854
1595877730,0.2772,-1.1105,0.4882,-32.8049,61.9512,24.4512
1595877730,0.2592,-1.1115,0.4910,-32.5000,63.2927,23.9634
1595877730,0.2321,-1.1060,0.4880,-32.1341,64.2073,22.8659
1595877730,0.2025,-1.0976,0.4766,-31.8293,63.8415,20.4878
1595877730,0.1754,-1.1005,0.4610,-31.7073,61.7073,17.4390
1595877730,0.1611,-1.1122,0.4483,-32.1951,57.6220,14.3293
1595877730,0.1495,-1.1138,0.4278,-31.0976,52.7439,11.4634
1595877730,0.1215,-1.1044,0.4109,-28.7805,49.0854,8.7195
1595877730,0.0939,-1.0934,0.3961,-26.5244,46.1585,6.8293
1595877730,0.0823,-1.0840,0.3812,-24.0244,43.0488,5.3049
1595877730,0.0735,-1.0666,0.3688,-21.0976,38.9634,4.2683
1595877730,0.0648,-1.0453,0.3577,-18.1098,34.3902,3.9024
1595877730,0.0582,-1.0254,0.3533,-15.3049,29.5122,4.2073
1595877730,0.0577,-1.0112,0.3535,-12.6829,22.7439,4.3293
1595877730,0.0635,-0.9924,0.3463,-8.9634,14.5122,4.1463
1595877730,0.0599,-0.9645,0.3384,-5.6707,6.2195,4.2073
1595877730,0.0666,-0.9390,0.3396,-4.0244,-2.6220,4.2073
1595877730,0.0885,-0.9047,0.3391,-1.5244,-12.1341,3.9024
1595877730,0.1011,-0.8671,0.3417,1.4024,-20.4878,3.4146
1595877730,0.1086,-0.8411,0.3400,3.3537,-26.5854,2.9878
1595877730,0.1163,-0.8156,0.3303,5.3659,-31.3415,2.6220
1595877730,0.1296,-0.7939,0.3204,7.3780,-35.3659,2.1341
1595877730,0.1492,-0.7803,0.3046,8.9634,-38.7805,1.6463
1595877730,0.1779,-0.7807,0.2946,10.6707,-40.8537,1.1585
1595877730,0.2014,-0.7852,0.2838,12.5610,-40.0000,1.0976
1595877730,0.2077,-0.7868,0.2789,15.0610,-35.9146,1.6463
1595877730,0.2041,-0.7861,0.2701,17.2561,-29.6341,2.6220
1595877730,0.1970,-0.7880,0.2621,19.0854,-22.9268,4.0854
1595877730,0.1911,-0.7872,0.2534,20.3659,-17.2561,6.1585
1595877731,0.1843,-0.7873,0.2440,21.4634,-13.0488,8.9634
1595877731,0.1769,-0.7941,0.2444,22.0122,-9.8780,12.1951
1595877731,0.1655,-0.8017,0.2436,22.0122,-7.9268,15.9756
1595877731,0.1595,-0.8096,0.2426,21.6463,-8.0488,20.2439
1595877731,0.1651,-0.8185,0.2406,21.0976,-10.6707,24.3902
1595877731,0.1802,-0.8253,0.2341,20.4268,-15.0000,28.1707
1595877731,0.1829,-0.8329,0.2277,19.4512,-19.8171,31.6463
1595877731,0.1861,-0.8422,0.2258,18.1098,-24.2683,34.8780
1595877731,0.1930,-0.8474,0.2175,16.7073,-28.2317,38.0488
1595877731,0.2086,-0.8492,0.2130,15.6098,-31.9512,40.4268
1595877731,0.2266,-0.8521,0.2076,14.3293,-34.8171,42.1951
1595877731,0.2432,-0.8601,0.2030,12.9268,-35.6707,43.7195
1595877731,0.2524,-0.8708,0.1978,11.2805,-34.5732,44.9390
1595877731,0.2551,-0.8824,0.1980,9.3902,-32.4390,46.0976
1595877731,0.2577,-0.8895,0.2047,7.3171,-30.0000,47.0122
1595877731,0.2560,-0.8870,0.2089,5.2439,-27.4390,47.6829
1595877731,0.2579,-0.8887,0.2136,2.9878,-24.8780,48.2317
1595877731,0.2550,-0.8893,0.2191,0.9146,-22.0732,48.5366
1595877731,0.2484,-0.8912,0.2269,-1.2195,-19.1463,48.6585
1595877731,0.2433,-0.8949,0.2347,-3.3537,-16.4634,48.7805
1595877731,0.2391,-0.9016,0.2435,-5.3659,-14.8171,48.8415
1595877731,0.2338,-0.9033,0.2496,-7.1341,-13.7195,48.7195
1595877731,0.2329,-0.9081,0.2514,-8.5366,-12.8659,48.2317
1595877731,0.2287,-0.9172,0.2560,-9.8171,-12.3780,47.6829
1595877731,0.2170,-0.9241,0.2612,-11.0366,-11.6463,47.0122
1595877731,0.2027,-0.9324,0.2623,-11.7683,-10.9756,46.2805
1595877731,0.1897,-0.9531,0.2673,-11.9512,-10.7927,45.4878
1595877731,0.1793,-0.9870,0.2703,-11.8902,-10.9756,44.7561
1595877731,0.1645,-1.0284,0.2649,-11.5244,-11.7073,44.4512
1595877731,0.1487,-1.0817,0.2552,-11.4634,-12.9268,44.5732
1595877731,0.1310,-1.1285,0.2485,-11.3415,-14.9390,44.9390
1595877731,0.1042,-1.1632,0.2338,-12.0122,-17.8659,45.4268
1595877731,0.0718,-1.1927,0.2252,-13.0488,-21.9512,45.7927
1595877731,0.0345,-1.2095,0.2275,-14.6951,-27.5610,46.2805
1595877731,0.0031,-1.2084,0.2302,-16.2805,-34.5732,47.3171
1595877731,-0.0171,-1.2048,0.2338,-18.1707,-42.9878,48.1098
1595877731,-0.0162,-1.2028,0.2453,-20.6707,-52.8659,48.5976
1595877731,-0.0108,-1.1939,0.2600,-22.2561,-62.9268,48.5366
1595877731,0.0008,-1.1746,0.2844,-23.2317,-71.5244,47.4390
1595877731,0.0137,-1.1382,0.3078,-23.6585,-77.8049,45.2439
1595877731,0.0240,-1.0886,0.3207,-23.5976,-81.8902,41.8902
1595877731,0.0267,-1.0439,0.3354,-23.4146,-83.6585,37.8049
1595877731,0.0224,-1.0081,0.3326,-23.0488,-82.8049,33.4146
1595877731,0.0101,-0.9709,0.3237,-22.5610,-79.4512,29.3293
1595877731,-0.0114,-0.9287,0.3059,-21.4634,-75.1220,25.5488
1595877731,-0.0360,-0.8912,0.2839,-19.8780,-70.6098,21.9512
1595877731,-0.0467,-0.8682,0.2642,-18.8415,-66.5244,19.5732
1595877731,-0.0571,-0.8489,0.2460,-17.2561,-63.1098,18.0488
1595877731,-0.0708,-0.8374,0.2256,-15.8537,-59.5732,17.6220
1595877731,-0.0743,-0.8336,0.2169,-15.1829,-56.7683,18.5976
1595877731,-0.0726,-0.8373,0.2085,-14.6951,-55.8537,20.4878
1595877731,-0.0620,-0.8456,0.2085,-14.1463,-56.8902,23.2317
1595877731,-0.0449,-0.8538,0.2098,-13.3537,-58.7805,26.5854
1595877731,-0.0317,-0.8606,0.2158,-12.9878,-60.5488,30.0000
1595877731,-0.0273,-0.8616,0.2206,-12.8659,-61.5854,33.4146
1595877731,-0.0273,-0.8636,0.2291,-13.1098,-61.7683,37.1951
1595877731,-0.0179,-0.8671,0.2401,-13.9024,-61.2805,40.9146
1595877731,0.0308,-0.9004,0.3048,-13.7805,-52.0732,49.0854
1595877731,0.0278,-0.9108,0.3186,-13.5976,-44.5122,50.1220
1595877731,0.0193,-0.9193,0.3248,-13.6585,-36.2195,50.6707
1595877731,-0.0057,-0.9243,0.3276,-13.6585,-28.1707,50.2439
1595877731,-0.0209,-0.9324,0.3197,-14.0854,-21.6463,49.3293
1595877731,-0.0308,-0.9449,0.3140,-13.9024,-16.5244,48.5366
1595877731,-0.0503,-0.9511,0.3059,-13.1707,-12.5610,46.9512
1595877731,-0.0776,-0.9492,0.2955,-12.9878,-9.2683,45.0610
1595877731,-0.1031,-0.9372,0.2858,-13.1098,-7.5000,43.4146
1595877731,-0.1245,-0.9212,0.2733,-12.9878,-8.1098,41.7683
1595877731,-0.1479,-0.9102,0.2615,-12.9878,-10.6707,40.0610
1595877731,-0.1532,-0.9064,0.2535,-12.9268,-15.0610,38.7805
1595877731,-0.1474,-0.9082,0.2507,-11.9512,-20.6098,38.2927
1595877731,-0.1382,-0.9091,0.2504,-10.6098,-25.9756,38.0488
1595877731,-0.1301,-0.9103,0.2502,-9.5732,-29.9390,38.1098
1595877731,-0.1229,-0.9141,0.2552,-9.0244,-32.9268,38.1707
1595877731,-0.1143,-0.9200,0.2610,-8.3537,-34.8780,38.5366
1595877731,-0.1078,-0.9240,0.2656,-7.0732,-35.8537,38.7805
1595877731,-0.1063,-0.9207,0.2645,-5.8537,-35.9756,38.7195
1595877731,-0.1091,-0.9156,0.2673,-5.1829,-35.6707,38.6585
1595877731,-0.1064,-0.9124,0.2679,-4.6951,-35.3659,38.2927
1595877731,-0.1047,-0.9031,0.2675,-3.8415,-35.1829,37.8659
1595877731,-0.1070,-0.8876,0.2664,-3.2927,-34.3293,37.1341
1595877731,-0.1066,-0.8784,0.2689,-3.4756,-33.7195,36.5244
1595877731,-0.0986,-0.8769,0.2747,-3.7805,-33.5366,35.9146
1595877731,-0.1017,-0.8759,0.2726,-3.9634,-33.2927,35.1829
1595877731,-0.1022,-0.8712,0.2766,-4.6951,-32.6220,34.8780
1595877731,-0.0944,-0.8693,0.2875,-5.4268,-31.8293,34.5122
1595877731,-0.0854,-0.8676,0.2919,-5.8537,-31.0976,33.7805
1595877731,-0.0757,-0.8635,0.2953,-6.2195,-29.6341,32.9878
1595877731,-0.0690,-0.8625,0.2965,-6.5854,-27.5000,31.9512
1595877731,-0.0695,-0.8590,0.2953,-6.5854,-24.5732,30.7317
1595877731,-0.0719,-0.8533,0.2917,-6.5854,-21.5854,29.8171
1595877731,-0.0771,-0.8444,0.2864,-6.7073,-19.0244,28.6585
1595877731,-0.0788,-0.8339,0.2813,-7.0732,-17.4390,27.3171
1595877731,-0.0842,-0.8239,0.2784,-7.4390,-16.4024,26.1585
1595877731,-0.0851,-0.8143,0.2774,-8.0488,-15.3659,25.2439
1595877731,-0.0753,-0.8104,0.2836,-9.0244,-14.8780,24.2073
1595877731,-0.0640,-0.8077,0.2928,-9.9390,-14.8171,22.8659
1595877732,-0.0508,-0.8032,0.3029,-10.8537,-14.2073,21.5244
1595877732,-0.0419,-0.7998,0.3121,-11.8902,-12.5000,20.1220
1595877732,-0.0353,-0.7978,0.3175,-13.0488,-9.6341,18.4146
1595877732,-0.0290,-0.7990,0.3260,-14.0854,-6.1585,16.6463
1595877732,-0.0216,-0.8026,0.3323,-14.8780,-2.7439,14.8171
1595877732,-0.0184,-0.8045,0.3335,-15.3659,0.9146,13.0488
1595877732,-0.0249,-0.8012,0.3349,-16.0976,5.4268,11.3415
1595877732,-0.0252,-0.8001,0.3393,-16.8293,10.0000,9.3902
1595877732,-0.0192,-0.8051,0.3425,-17.2561,14.0854,7.7439
1595877732,-0.0210,-0.8130,0.3497,-16.9512,18.2317,6.4024
1595877732,-0.0250,-0.8208,0.3583,-17.0122,22.7439,4.8780
1595877732,-0.0303,-0.8272,0.3681,-16.8902,26.5244,3.4756
1595877732,-0.0351,-0.8286,0.3745,-16.4024,29.6341,1.8902
1595877732,-0.0407,-0.8331,0.3763,-16.0976,32.0122,0.0610
1595877732,-0.0394,-0.8362,0.3781,-15.4268,33.5366,-2.0122
1595877732,-0.0376,-0.8438,0.3807,-14.2073,34.5122,-3.9634
1595877732,-0.0421,-0.8529,0.3829,-13.2317,35.5488,-5.8537
1595877732,-0.0491,-0.8553,0.3765,-11.9512,36.5244,-7.5610
1595877732,-0.0555,-0.8548,0.3741,-10.7927,37.3780,-9.7561
1595877732,-0.0576,-0.8593,0.3737,-9.9390,37.5000,-11.8293
1595877732,-0.0594,-0.8651,0.3714,-8.5366,37.5610,-13.8415
1595877732,-0.0671,-0.8712,0.3708,-6.8293,37.8049,-15.7317
1595877732,-0.0725,-0.8774,0.3671,-5.6707,37.8659,-17.3780
1595877732,-0.0715,-0.8889,0.3687,-4.3293,37.2561,-19.0244
1595877732,-0.0716,-0.8991,0.3676,-2.5610,36.4024,-20.6707
1595877732,-0.0750,-0.9106,0.3672,-0.3049,36.0976,-22.2561
1595877732,-0.0844,-0.9215,0.3641,1.8902,36.3415,-23.6585
1595877732,-0.0939,-0.9297,0.3580,4.2683,36.1585,-25.1829
1595877732,-0.1010,-0.9437,0.3488,6.8293,35.4878,-26.4634
1595877732,-0.1117,-0.9617,0.3416,9.6341,33.8415,-27.7439
1595877732,-0.1208,-0.9767,0.3310,12.5000,31.4024,-28.9024
1595877732,-0.1218,-0.9932,0.3200,15.6098,28.8415,-29.8171
1595877732,-0.1274,-1.0046,0.3086,18.8415,26.4634,-30.5488
1595877732,-0.1379,-1.0125,0.2982,21.7683,24.2073,-31.3415
1595877732,-0.1443,-1.0216,0.2837,24.2073,21.8293,-32.1951
1595877732,-0.1511,-1.0380,0.2662,26.7073,18.6585,-32.8049
1595877732,-0.1559,-1.0515,0.2524,29.1463,15.1220,-33.4756
1595877732,-0.1512,-1.0593,0.2422,31.3415,11.2195,-33.9024
1595877732,-0.1387,-1.0650,0.2353,33.2927,7.0732,-34.4512
1595877732,-0.1288,-1.0655,0.2270,35.3659,3.6585,-35.5488
1595877732,-0.1238,-1.0549,0.2208,37.5610,1.6463,-36.8293
1595877732,-0.1178,-1.0461,0.2073,39.5122,0.6707,-38.4146
1595877732,-0.1128,-1.0359,0.1927,40.8537,-0.4878,-40.2439
1595877732,-0.1227,-1.0122,0.1758,41.9512,-1.7683,-42.1341
1595877732,-0.1348,-0.9883,0.1589,42.0732,-3.0488,-44.0854
1595877732,-0.1364,-0.9780,0.1425,41.5244,-5.0000,-45.6707
1595877732,-0.1270,-0.9747,0.1373,40.9146,-7.9268,-46.5244
1595877732,-0.1146,-0.9653,0.1309,39.9390,-10.2439,-47.1951
1595877732,-0.1067,-0.9561,0.1290,38.9634,-10.9756,-47.6220
1595877732,-0.1009,-0.9478,0.1251,37.7439,-10.7317,-47.4390
1595877732,-0.0923,-0.9413,0.1218,36.0976,-10.2439,-46.9512
1595877732,-0.0818,-0.9387,0.1243,34.2073,-9.7561,-46.0366
1595877732,-0.0671,-0.9374,0.1320,32.3171,-9.0244,-44.6341
1595877732,-0.0566,-0.9367,0.1382,30.7317,-7.2561,-43.0488
1595877732,-0.0544,-0.9304,0.1348,28.8415,-4.2683,-41.6463
1595877732,-0.0662,-0.9212,0.1336,26.3415,-1.0366,-39.9390
1595877732,-0.0748,-0.9108,0.1332,23.1098,1.5854,-37.9878
1595877732,-0.0726,-0.9080,0.1374,20.0000,3.3537,-35.6707
1595877732,-0.0609,-0.9085,0.1378,17.5000,4.6341,-33.4146
1595877732,-0.0542,-0.9078,0.1437,15.0610,6.3415,-31.2195
1595877732,-0.0479,-0.9069,0.1501,12.5000,8.9634,-28.5976
1595877732,-0.0463,-0.9096,0.1578,9.9390,12.2561,-26.0366
1595877732,-0.0398,-0.9130,0.1639,7.5000,15.5488,-23.7195
1595877732,-0.0291,-0.9178,0.1718,5.1829,18.9024,-21.4634
1595877732,-0.0215,-0.9185,0.1798,3.2927,22.2561,-19.4512
1595877732,-0.0140,-0.9200,0.1876,1.6463,26.0976,-17.5000
1595877732,-0.0104,-0.9265,0.1958,0.5488,30.6707,-15.7317
1595877732,-0.0117,-0.9297,0.1986,0.2439,35.6098,-14.0854
1595877732,-0.0159,-0.9248,0.2022,-0.6707,40.4878,-12.5610
1595877732,-0.0138,-0.9179,0.2177,-1.6463,44.3293,-11.2195
1595877732,-0.0103,-0.9164,0.2379,-1.8902,47.1951,-10.3049
1595877732,-0.0126,-0.9197,0.2596,-1.7073,49.6341,-9.3293
1595877732,-0.0150,-0.9183,0.2859,-0.9756,52.0732,-8.1098
1595877732,-0.0140,-0.9178,0.3057,-0.2439,53.1707,-7.0122
1595877732,-0.0104,-0.9099,0.3078,0.9146,51.6463,-6.5244
1595877732,-0.0031,-0.8978,0.3019,2.1951,48.2317,-6.4024
1595877732,0.0033,-0.8892,0.2949,2.6220,44.4512,-5.7317
1595877732,0.0116,-0.8807,0.2932,2.5000,40.4878,-4.9390
1595877732,0.0389,-0.8771,0.3080,1.9512,36.0976,-3.8415
1595877732,0.1017,-0.8892,0.3390,1.7073,31.5244,-2.9878
1595877732,0.1622,-0.8878,0.3546,2.5000,28.1707,-3.1707
1595877732,0.1913,-0.8817,0.3630,3.2317,27.5000,-4.8780
1595877732,0.2012,-0.8826,0.3774,2.1951,29.6951,-7.6220
1595877732,0.2051,-0.8808,0.3861,2.0732,33.7195,-10.2439
1595877732,0.1895,-0.8890,0.3969,2.9268,38.8415,-13.1707
1595877732,0.1757,-0.8949,0.4003,3.2317,43.3537,-16.2195
1595877732,0.1746,-0.8873,0.4036,3.3537,46.2195,-19.6951
1595877732,0.1873,-0.8801,0.4137,3.4146,47.5610,-23.3537
1595877732,0.2112,-0.8807,0.4253,3.8415,48.5366,-26.6463
1595877732,0.2291,-0.8853,0.4366,4.3293,49.7561,-29.5122
1595877732,0.2375,-0.8945,0.4529,4.6951,51.0366,-32.6829
1595877732,0.2471,-0.8989,0.4632,5.4268,51.8902,-35.8537
1595877732,0.2529,-0.8956,0.4677,7.3780,51.3415,-39.0244
1595877732,0.2570,-0.8907,0.4641,9.0854,49.7561,-42.3780
1595877732,0.2637,-0.8796,0.4554,10.6707,47.3781,-46.0976
1595877732,0.2706,-0.8599,0.4461,12.5610,44.8780,-49.9390
1595877732,0.2784,-0.8447,0.4409,14.3293,43.0488,-53.9024
1595877732,0.2885,-0.8423,0.4431,16.4634,41.9512,-57.5610
1595877732,0.3081,-0.8502,0.4473,19.5122,41.6463,-60.3659
1595877732,0.3206,-0.8671,0.4538,22.5610,41.6463,-62.8659
1595877732,0.3387,-0.8755,0.4576,24.3902,40.9756,-65.7317
1595877732,0.3590,-0.8764,0.4559,26.3415,38.9024,-69.3293
1595877732,0.3660,-0.8708,0.4502,28.2927,36.0366,-73.5976
1595877733,0.3672,-0.8597,0.4496,29.3293,32.9878,-77.4390
1595877733,0.3698,-0.8560,0.4496,30.4878,30.0610,-80.6098
1595877733,0.3712,-0.8603,0.4488,32.1341,27.0122,-83.2317
1595877733,0.3749,-0.8691,0.4469,34.0244,24.7561,-85.4268
1595877733,0.3795,-0.8745,0.4410,35.4878,22.9268,-87.3171
1595877733,0.3843,-0.8690,0.4285,36.0976,20.5488,-89.2073
1595877733,0.3770,-0.8484,0.4121,36.1585,17.7439,-91.3415
1595877733,0.3687,-0.8345,0.4010,34.6951,14.0244,-93.7195
1595877733,0.3736,-0.8226,0.3939,32.3171,8.0488,-95.7317
1595877733,0.3870,-0.8190,0.3995,30.6707,1.3415,-97.8049
1595877733,0.4060,-0.8297,0.4039,30.4268,-3.0488,-99.6341
1595877733,0.4213,-0.8547,0.4080,30.8537,-3.5976,-100.0000
1595877733,0.4413,-0.8851,0.4197,30.3659,-1.8293,-99.5122
1595877733,0.4564,-0.9032,0.4294,30.0610,0.7927,-99.2683
1595877733,0.4640,-0.9138,0.4322,30.2439,4.4512,-100.1829
1595877733,0.4582,-0.9150,0.4285,29.6951,7.6220,-100.9146
1595877733,0.4528,-0.9011,0.4150,29.0854,10.1829,-101.7073
1595877733,0.4491,-0.8726,0.3974,29.0854,13.3537,-102.5610
1595877733,0.4429,-0.8464,0.3743,28.2317,17.1341,-103.1098
1595877733,0.4404,-0.8269,0.3615,26.4634,20.7927,-103.1098
1595877733,0.4387,-0.8003,0.3558,25.2439,24.8171,-103.1707
1595877733,0.4355,-0.7761,0.3565,23.9634,29.5732,-103.4756
1595877733,0.4473,-0.7552,0.3713,22.1951,33.9024,-103.5976
1595877733,0.4656,-0.7333,0.3851,20.9756,37.9878,-103.5366
1595877733,0.4663,-0.7123,0.4007,19.6341,42.9878,-103.5976
1595877733,0.4558,-0.6854,0.3896,17.6829,48.1707,-103.1707
1595877733,0.4420,-0.6768,0.3705,14.0854,51.4024,-101.9512
1595877733,0.4586,-0.6779,0.3677,7.8049,50.0000,-100.0000
1595877733,0.4796,-0.6533,0.3564,4.2073,45.7927,-97.2561
1595877733,0.4855,-0.6453,0.3525,0.3659,42.0732,-95.0610
1595877733,0.5112,-0.6506,0.3498,-4.0854,38.4756,-91.8902
1595877733,0.5152,-0.6415,0.3420,-5.3659,37.0122,-88.9024
1595877733,0.5206,-0.6296,0.3339,-6.7683,38.6585,-85.7317
1595877733,0.5591,-0.6208,0.3282,-8.2317,42.9878,-81.3415
1595877733,0.5812,-0.6009,0.3372,-8.1098,49.7561,-78.1707
1595877733,0.5916,-0.5695,0.3470,-8.5976,58.0488,-75.6098
1595877733,0.5858,-0.5641,0.3358,-12.3171,65.0000,-73.1098
1595877733,0.5758,-0.5513,0.3316,-17.7439,67.6829,-71.9512
1595877733,0.6089,-0.5270,0.3399,-19.2073,65.2439,-71.5244
1595877733,0.6656,-0.5375,0.3552,-22.9268,59.7561,-71.2805
1595877733,0.6931,-0.5596,0.3802,-27.3780,57.5610,-69.6951
1595877733,0.7139,-0.5589,0.3969,-27.5000,63.1098,-68.1098
1595877733,0.7036,-0.5478,0.4124,-22.9268,76.8902,-67.2561
1595877733,0.6500,-0.5381,0.4357,-20.6707,94.6341,-65.2439
1595877733,0.5889,-0.5353,0.4564,-20.0610,110.9756,-62.0122
1595877733,0.5447,-0.5289,0.4751,-18.2317,123.1707,-59.7561
1595877733,0.5077,-0.5383,0.4834,-17.5610,130.1829,-58.3537
1595877733,0.5055,-0.5632,0.4755,-18.7195,132.0122,-57.2561
1595877733,0.5281,-0.6595,0.4541,-22.5000,125.7317,-47.9268
1595877733,0.3114,-0.8361,0.5690,-29.6341,107.0122,-8.6585
1595877734,0.2759,-0.8402,0.5626,-25.9756,106.5244,-5.4878
1595877734,0.0671,-0.8539,0.5373,-30.9756,108.7805,4.5732
1595877734,0.1742,-0.8684,0.5264,-31.2195,67.3781,5.8537
1595877734,0.1029,-0.8686,0.5073,-31.1585,70.5488,5.0610
1595877734,0.0674,-0.8536,0.5123,-30.9146,72.9268,3.5366
1595877734,0.1039,-0.8116,0.5159,-26.0366,65.0610,-1.3415
1595877734,0.0835,-0.8060,0.5178,-23.4146,66.3415,-1.9512
1595877734,0.0151,-0.8912,0.5829,-22.4390,87.0122,0.3659
1595877734,-0.0715,-0.8895,0.5932,-22.1951,100.1220,3.1098
1595877734,-0.0906,-0.8774,0.5574,-23.8415,89.6951,2.6829
1595877734,-0.1426,-0.8669,0.5489,-22.3780,68.2927,2.8659
1595877734,-0.1573,-0.8736,0.5292,-22.4390,58.9024,5.7317
1595877734,-0.1614,-0.8824,0.4135,-21.1585,50.7317,7.0122
1595877734,-0.1077,-0.9113,0.5129,-18.0488,47.0732,6.6463
1595877734,-0.0231,-0.9105,0.6215,-15.1220,48.4146,8.9634
1595877734,0.0518,-0.9074,0.7190,-10.9146,47.0122,6.5244
1595877734,0.0466,-0.8618,0.7814,-0.3659,52.4390,-1.9512
1595877734,0.0757,-0.7643,0.6801,-1.6463,43.8415,-7.5000
1595877734,0.0523,-0.7463,0.7421,-0.6707,43.9024,-12.7439
1595877734,-0.0040,-0.7357,0.6841,-0.8537,41.3415,-16.2805
1595877734,-0.0186,-0.8023,0.6805,-2.1951,36.5244,-13.0488
1595877734,-0.0337,-0.7600,0.6977,-0.5488,20.9146,-13.5366
1595877734,0.0825,-0.7707,0.7022,-2.2561,18.4756,-16.6463
1595877734,-0.3193,-0.7195,0.2676,-14.8171,1.0366,-13.6585
1595877734,0.0081,-0.7390,0.7712,-7.6829,-67.0732,-7.6220
1595877734,-0.0037,-0.6134,0.7383,-6.8902,-126.9512,-8.1098
1595877734,0.3331,-0.7291,0.4905,-13.1098,-155.0610,6.2195
1595877735,0.5646,-0.7109,0.3373,-1.2195,-26.2195,4.3293
1595877735,0.4536,-0.7458,0.3701,-2.1341,22.4390,3.6585
1595877735,0.4005,-0.7679,0.3875,-2.1951,58.0488,5.7317
1595877735,0.1566,-0.8253,0.6269,-2.3171,40.5488,-7.4390
1595877735,0.1558,-0.7582,0.5884,1.8902,-8.4146,-9.3293
1595877735,0.1209,-0.7490,0.5953,-1.8902,-21.3415,-4.8171
1595877735,0.1239,-0.7241,0.6209,-3.1707,-40.4268,-2.8659
1595877735,0.3920,-0.8261,0.5761,-0.6098,-51.9512,3.2317
1595877735,0.3677,-0.8326,0.5391,2.4390,-33.0488,0.3659
1595877735,0.3439,-0.8170,0.5682,3.7195,-27.8049,-0.2439
1595877735,0.3524,-0.7534,0.4200,4.3293,-5.6098,-7.5000
1595877735,0.3199,-0.7120,0.4284,5.2439,-3.2927,-11.2805
1595877735,0.0864,-0.6219,0.6401,2.7439,3.1707,-7.3780
1595877735,0.1696,-0.6199,0.6128,-4.9390,-61.4634,4.4512
1595877735,0.2352,-0.6389,0.5817,-9.5122,-92.2561,7.7439
1595877735,0.2674,-0.6650,0.5602,-12.5000,-97.4390,8.0488
1595877735,0.3612,-0.7709,0.5201,-14.8780,-124.2683,13.3537
1595877735,0.4820,-0.7771,0.4733,-5.9146,-103.1098,11.4024
1595877735,0.4462,-0.8406,0.5323,-5.5488,-92.5000,8.9024
1595877735,0.5009,-0.7779,0.3826,10.3049,-31.5854,-2.9268
1595877735,0.4644,-0.7219,0.2831,11.7683,-14.0854,-4.3293
1595877735,0.5287,-0.8598,0.4351,7.6829,9.0244,-1.9512
1595877735,0.3705,-0.7884,0.4795,6.3415,23.0488,-7.5000
1595877735,0.3866,-0.7150,0.4746,1.5854,7.3780,-14.6341
1595877735,0.4116,-0.8105,0.6205,0.6098,-6.4634,-5.9146
1595877735,0.3775,-0.7039,0.6182,15.6707,-0.6707,1.4634
1595877735,0.3515,-0.7206,0.5644,17.8049,12.8049,2.6829
1595877735,0.2935,-0.6420,0.5230,18.1707,10.7317,8.0488
1595877735,0.3058,-0.7433,0.5577,9.4512,-3.1707,15.6707
1595877735,0.3329,-0.7770,0.4968,6.7073,-34.8780,20.7927
1595877735,0.5015,-0.7336,0.4486,6.2805,-50.5488,18.7805
1595877735,0.5065,-0.7117,0.3915,3.9024,-51.5244,17.6220
1595877735,0.5708,-0.7667,0.4308,-2.0732,-34.0244,13.0488
1595877735,0.4458,-0.7114,0.2881,-3.5366,-18.2317,5.6098
1595877735,0.4827,-0.7389,0.4410,-11.0366,-11.4634,-1.6463
1595877735,0.4561,-0.7544,0.4984,-14.0244,-3.2317,-5.3049
1595877735,0.3342,-0.6952,0.5178,-10.3659,8.1707,-6.5854
1595877735,0.3395,-0.7114,0.5361,-10.1829,6.2195,-4.8780
1595877735,0.3779,-0.7154,0.5572,-10.8537,1.1585,-2.8659
1595877735,0.3413,-0.7105,0.5599,-10.1829,-0.9146,-1.5854
1595877735,0.3080,-0.7268,0.5213,-9.8780,-1.2195,0.3049
1595877735,0.3187,-0.7744,0.5205,-10.7317,-18.8415,4.5122
1595877735,0.3572,-0.7830,0.4949,-10.4878,-27.3171,7.3171
1595877735,0.3665,-0.7869,0.4796,-9.0854,-32.0732,7.6220
1595877735,0.4673,-0.8115,0.5182,-6.0366,-34.6341,7.5000
1595877735,0.4572,-0.7955,0.5004,-4.2073,-33.4756,5.1220
1595877735,0.4268,-0.8084,0.4859,-3.2317,-29.2683,3.8415
1595877735,0.3460,-0.8122,0.5793,-1.0366,-33.2927,-2.5000
1595877735,0.4251,-0.7853,0.4980,9.9390,-91.7683,-1.4024
1595877735,0.4109,-0.7878,0.4594,11.5854,-109.5732,-2.9268
1595877735,0.3541,-0.7883,0.4023,12.1341,-118.6585,-4.1463
1595877735,0.3189,-0.7532,0.3228,13.6585,-140.3049,-2.8049
1595877735,0.2789,-0.7512,0.2653,11.5854,-147.8049,-0.9146
1595877735,0.2955,-0.7562,0.2290,10.3659,-158.3537,1.2195
1595877735,0.4234,-0.7809,0.2174,8.4146,-172.3781,4.6951
1595877735,0.5958,-0.8524,0.2644,7.3780,-179.6342,6.7073
1595877735,0.6307,-0.8593,0.2034,9.2683,-170.7317,5.5488
1595877735,0.6616,-0.8693,0.1608,9.2683,-157.6829,1.9512
1595877735,0.6992,-0.8529,0.1343,8.6585,-145.8537,-2.1341
1595877735,0.7679,-0.8999,-0.0339,-16.8293,-113.1098,-28.5976
1595877736,0.7958,-0.8894,-0.0352,-22.1341,-109.0244,-34.5732
1595877736,0.8221,-0.8726,-0.0699,-27.3780,-99.0244,-41.4024
1595877736,0.8099,-0.8415,-0.1442,-39.0854,-73.1098,-53.4756
1595877736,0.7964,-0.7824,-0.1001,-42.6829,-65.0000,-55.9146
1595877736,0.7458,-0.7535,-0.1332,-52.3171,-48.1707,-59.3902
1595877736,0.7379,-0.7420,-0.1146,-56.9512,-40.7317,-61.0976
1595877736,0.7749,-0.7349,-0.0846,-60.0000,-35.0610,-60.6098
1595877736,0.8018,-0.7062,-0.0507,-60.7317,-19.0854,-59.2683
1595877736,0.7889,-0.7027,-0.1016,-61.9512,-4.6951,-59.4512
1595877736,0.7672,-0.7055,-0.0685,-63.7805,6.3415,-59.3902
1595877736,0.7383,-0.6845,0.0123,-62.5610,10.2439,-56.4634
1595877736,0.7372,-0.6491,0.0373,-60.4878,12.6829,-53.1707
1595877736,0.7244,-0.6453,0.0685,-59.5732,15.5488,-52.5610
1595877736,0.7014,-0.5894,0.1015,-48.4756,15.3049,-49.1463
1595877736,0.7272,-0.5991,0.0904,-45.7317,11.5244,-47.5000
1595877736,0.7853,-0.6091,0.0388,-43.1098,7.5610,-46.1585
1595877736,0.9706,-0.5706,0.1030,-33.2317,8.2927,-38.9634
1595877736,0.8608,-0.5664,0.0749,-30.4878,18.1707,-37.3780
1595877736,0.7711,-0.5571,0.0555,-28.7805,32.0732,-32.6829
1595877736,0.7374,-0.5583,0.1125,-27.2561,40.7927,-29.3902
1595877736,0.7339,-0.5551,0.1347,-24.0244,36.9512,-27.5000
1595877736,0.7331,-0.5624,0.1158,-17.9878,27.4390,-25.0610
1595877736,0.7763,-0.5665,0.0787,-14.3293,22.5610,-23.4756
1595877736,0.8452,-0.5801,0.1202,-10.7317,18.0488,-21.4634
1595877736,1.0286,-0.5645,0.1755,0.1829,25.6098,-19.2683
1595877736,0.9584,-0.5635,0.1320,4.1463,44.3293,-18.9024
1595877736,0.8345,-0.5560,0.0872,6.8902,66.5244,-15.9146
1595877736,0.7229,-0.5505,0.0627,8.4146,79.5122,-13.4146
1595877736,0.6769,-0.5446,0.0503,7.2561,76.5854,-12.9268
1595877736,0.6670,-0.5490,0.0989,3.3537,59.9390,-12.5000
1595877736,0.6776,-0.5602,0.1447,-0.7317,38.1098,-11.7073
1595877736,0.6956,-0.5483,0.0853,-4.5122,-2.4390,-11.5854
1595877736,0.7844,-0.5743,0.0177,-7.7439,-22.9268,-9.3902
1595877736,0.9714,-0.5908,0.0297,-8.2927,-41.8293,-8.1098
1595877736,1.0911,-0.6207,0.0493,-6.3415,-44.3902,-8.7805
1595877736,1.0153,-0.5958,0.0322,-5.3049,-23.1098,-9.0854
1595877736,0.9363,-0.5464,0.0485,-2.1951,8.9634,-8.5976
1595877736,0.9201,-0.5365,0.0397,0.6098,27.9878,-9.5732
1595877736,0.8920,-0.5471,0.0495,0.6098,33.7195,-11.6463
1595877736,0.8556,-0.5323,0.0786,0.7927,35.9756,-11.4634
1595877736,0.7976,-0.5238,0.0887,1.4024,37.3780,-10.9756
1595877736,0.8535,-0.5399,0.1401,2.9268,21.7683,-7.4390
1595877736,0.9428,-0.5441,0.2180,4.6341,20.3659,-6.9512
1595877736,0.8785,-0.5798,0.2480,11.7683,36.5244,-9.5122
1595877736,0.5981,-0.5898,0.1790,19.1463,53.5976,-9.2073
1595877736,0.5909,-0.6122,0.1772,18.1098,31.8902,-6.5854
1595877736,0.6548,-0.6243,0.1958,16.7683,-1.6463,-4.1463
1595877736,0.7617,-0.6165,0.2229,16.4024,-48.9634,0.2439
1595877736,0.8727,-0.6713,0.3016,20.9756,-64.3902,2.1341
1595877736,0.8547,-0.7053,0.2822,25.1829,-68.6585,0.4268
1595877736,0.7055,-0.7083,0.1636,33.9634,-66.1585,0.1829
1595877736,0.7116,-0.6874,0.1409,36.4024,-72.9268,0.3659
1595877736,0.6478,-0.6202,0.1285,39.3293,-96.1585,0.1829
1595877736,0.6637,-0.6157,0.1035,37.1341,-107.1951,0.7927
1595877736,0.6921,-0.6218,0.0738,32.8659,-120.1829,1.5854
1595877736,0.7028,-0.6281,0.0566,30.0000,-130.8537,2.7439
1595877736,0.7046,-0.6279,0.0226,28.3537,-137.8049,5.4878
1595877736,0.6609,-0.6494,-0.0757,24.1463,-143.1707,11.6463
1595877736,0.6525,-0.6556,-0.0928,23.8415,-144.1463,14.0854
1595877736,0.6925,-0.6470,-0.1353,23.9634,-145.9146,18.2927
1595877736,0.6517,-0.6652,-0.1302,23.2317,-145.2439,20.0000
1595877736,0.6150,-0.6516,-0.1420,25.8537,-149.6951,23.2927
1595877736,0.5576,-0.6544,-0.1965,25.3659,-152.3171,24.3902
1595877736,0.5190,-0.6705,-0.2742,23.2927,-160.1829,25.7317
1595877736,0.5065,-0.6876,-0.3479,20.1220,-175.6098,27.2561
1595877736,0.5546,-0.7021,-0.4489,17.6829,-195.3049,28.1707
1595877736,0.6454,-0.7322,-0.5328,15.4268,-212.5000,28.9634
1595877736,0.7474,-0.7578,-0.5768,13.5366,-225.1220,28.7195
1595877736,0.8106,-0.7528,-0.5837,13.1707,-227.3171,28.5976
1595877736,0.8950,-0.7424,-0.5919,14.0854,-218.4756,27.5000
1595877736,0.9512,-0.7421,-0.6061,15.7317,-197.1951,24.5122
1595877736,0.9246,-0.7292,-0.6023,17.7439,-167.4390,20.4268
1595877736,0.8644,-0.7097,-0.5660,21.7073,-134.7561,17.1341
1595877736,0.8061,-0.6812,-0.5465,27.0122,-102.1341,13.5366
1595877737,0.7278,-0.6685,-0.5517,30.1829,-73.9634,10.3049
1595877737,0.6629,-0.6807,-0.5775,30.9756,-54.9390,7.2561
1595877737,0.6548,-0.6843,-0.6079,32.3171,-44.4512,5.4878
1595877737,0.6518,-0.6700,-0.5782,34.8780,-42.8659,4.8171
1595877737,0.6237,-0.6616,-0.5601,35.7927,-47.2561,5.3659
1595877737,0.6497,-0.6573,-0.5696,35.0610,-48.3537,5.3049
1595877737,0.6754,-0.6440,-0.5696,34.4512,-46.5244,1.4024
1595877737,0.6681,-0.6313,-0.5531,35.4268,-44.2073,-1.6463
1595877737,0.7017,-0.6324,-0.5395,37.3780,-37.1951,-6.6463
1595877737,0.7062,-0.6351,-0.5528,38.5366,-32.6220,-9.6951
1595877737,0.6978,-0.6424,-0.5552,39.3902,-25.9146,-12.0122
1595877737,0.6725,-0.6443,-0.5443,40.1829,-18.7805,-14.5122
1595877737,0.5578,-0.6266,-0.5391,41.8902,-6.2805,-19.8780
1595877737,0.5480,-0.6292,-0.5407,42.0122,-7.9268,-19.8780
1595877737,0.5609,-0.6423,-0.5282,41.2805,-12.8659,-20.1829
1595877737,0.5679,-0.6557,-0.5168,40.7927,-17.9878,-20.7317
1595877737,0.6107,-0.6855,-0.5026,43.4756,-22.7439,-21.7683
1595877737,0.6478,-0.6966,-0.5042,49.5122,-22.7439,-23.3537
1595877737,0.6476,-0.7053,-0.5262,52.6220,-20.7927,-25.1829
1595877737,0.6208,-0.7101,-0.5432,54.5122,-16.8902,-27.1951
1595877737,0.5616,-0.7027,-0.5578,56.9512,-14.6341,-31.6463
1595877737,0.5494,-0.6902,-0.4837,59.0244,-26.9512,-37.9878
1595877737,0.5660,-0.7193,-0.5199,65.3659,-40.9756,-41.1585
1595877737,0.5657,-0.7219,-0.5371,67.9878,-43.1098,-41.8902
1595877737,0.5135,-0.6728,-0.4661,88.2317,-44.6951,-51.0366
1595877737,0.4973,-0.6653,-0.4687,91.6463,-48.0488,-52.1341
1595877737,0.4850,-0.6649,-0.4902,94.9390,-51.8902,-53.0488
1595877737,0.4923,-0.6686,-0.5107,97.5000,-56.8293,-53.6585
1595877737,0.4974,-0.6689,-0.5251,100.1829,-62.6220,-54.3293
1595877737,0.5127,-0.6639,-0.5283,102.6220,-67.5610,-55.0610
1595877737,0.5217,-0.6705,-0.5344,105.0000,-71.2195,-55.7927
1595877737,0.5242,-0.6757,-0.5340,107.0122,-72.8049,-56.8293
1595877737,0.5270,-0.6726,-0.5213,109.3902,-74.2073,-58.1098
1595877737,0.5290,-0.6762,-0.5021,111.7683,-76.1585,-58.9024
1595877737,0.5347,-0.6865,-0.4950,114.3293,-77.7439,-59.6951
1595877737,0.5444,-0.6962,-0.4930,116.7073,-78.6585,-60.5488
1595877737,0.5444,-0.7003,-0.4895,119.2683,-79.3293,-61.2195
1595877737,0.5413,-0.7131,-0.4952,122.3171,-79.6341,-61.4634
1595877737,0.5461,-0.7291,-0.5037,125.0610,-79.8171,-61.2805
1595877737,0.5505,-0.7324,-0.5063,128.1098,-80.6098,-60.5488
1595877737,0.5587,-0.7332,-0.5072,131.2195,-81.9512,-59.3902
1595877737,0.5565,-0.7405,-0.5142,134.0244,-82.8659,-57.8659
1595877737,0.5645,-0.7417,-0.5113,136.1585,-84.7561,-56.1585
1595877737,0.5919,-0.7187,-0.4832,140.4878,-90.0000,-51.8902
1595877737,0.6033,-0.7101,-0.4606,142.0122,-91.2195,-49.0244
1595877737,0.6143,-0.6957,-0.4490,143.0488,-92.2561,-46.0976
1595877737,0.6390,-0.6930,-0.4380,143.6585,-93.9024,-42.4390
1595877737,0.6552,-0.6889,-0.4296,143.7195,-95.6098,-39.0244
1595877737,0.6557,-0.6777,-0.4344,144.1463,-95.6707,-35.5488
1595877737,0.6722,-0.6707,-0.4355,144.2073,-95.3659,-31.8293
1595877737,0.7032,-0.6629,-0.4189,143.4146,-96.5244,-28.5976
1595877737,0.7226,-0.6448,-0.3864,142.5000,-98.0488,-25.3049
1595877737,0.7339,-0.6237,-0.3687,141.9512,-99.2073,-22.5000
1595877737,0.7513,-0.6080,-0.3725,140.6098,-99.1463,-19.3902
1595877737,0.7554,-0.5865,-0.3771,138.7805,-97.5610,-16.5244
1595877737,0.7571,-0.5680,-0.3776,136.7683,-95.6098,-13.6585
1595877737,0.7687,-0.5604,-0.3651,134.4512,-94.8171,-10.1829
1595877737,0.8033,-0.5590,-0.3376,131.7683,-95.3049,-6.4634
1595877737,0.8412,-0.5619,-0.3224,129.6951,-95.4878,-2.8049
1595877737,0.8682,-0.5657,-0.3277,127.9268,-93.5976,0.3659
1595877737,0.8680,-0.5675,-0.3371,125.9146,-90.1829,3.1707
1595877737,0.8610,-0.5723,-0.3394,124.0244,-86.4634,5.1220
1595877737,0.8647,-0.5660,-0.3250,121.9512,-83.4146,6.0976
1595877737,0.8599,-0.5502,-0.3116,120.3659,-81.9512,5.7927
1595877737,0.8442,-0.5410,-0.3021,118.7195,-80.9146,5.1829
1595877737,0.8241,-0.5427,-0.2936,116.7683,-80.1220,4.0854
1595877737,0.8138,-0.5500,-0.2841,115.1220,-81.2195,2.1341
1595877737,0.8123,-0.5540,-0.2780,114.3293,-83.5976,-0.3659
1595877737,0.8150,-0.5626,-0.2809,114.0854,-85.9146,-2.9268
1595877737,0.8308,-0.5724,-0.2874,114.2683,-88.1707,-5.6098
1595877737,0.8257,-0.5701,-0.2828,115.2439,-90.7317,-8.5976
1595877737,0.8062,-0.5603,-0.2820,115.9146,-92.8049,-11.8293
1595877737,0.7952,-0.5513,-0.2906,116.0976,-92.3171,-14.8780
1595877737,0.7635,-0.5354,-0.2905,116.2805,-90.4878,-19.3293
1595877737,0.7249,-0.5162,-0.2834,116.3415,-90.2439,-23.2317
1595877737,0.7113,-0.5021,-0.2748,115.9146,-92.2561,-25.6098
1595877737,0.7081,-0.4938,-0.2667,114.8171,-95.9756,-27.8049
1595877737,0.7018,-0.4893,-0.2664,113.5366,-99.5122,-29.7561
1595877737,0.7020,-0.4897,-0.2654,112.4390,-102.4390,-30.4878
1595877737,0.7140,-0.4933,-0.2566,111.2805,-106.0976,-30.8537
1595877737,0.7313,-0.4978,-0.2556,110.1220,-109.3293,-30.6707
1595877737,0.7460,-0.5027,-0.2658,109.0854,-110.9756,-30.2439
1595877737,0.7586,-0.5157,-0.2758,108.0488,-111.5854,-30.0610
1595877737,0.7733,-0.5232,-0.2810,107.0122,-111.3415,-29.8780
1595877737,0.7830,-0.5308,-0.2806,105.7927,-110.2439,-29.4512
1595877737,0.7852,-0.5399,-0.2797,104.2683,-108.3537,-28.7805
1595877737,0.8026,-0.5565,-0.2771,102.3781,-106.4634,-27.6829
1595877737,0.8156,-0.5671,-0.2689,100.6098,-104.6341,-26.3415
1595877737,0.8267,-0.5773,-0.2539,98.6585,-102.7439,-24.9390
1595877737,0.8408,-0.5829,-0.2383,96.4024,-99.4512,-22.9268
1595877737,0.8465,-0.5883,-0.2262,94.1463,-95.4878,-21.3415
1595877738,0.8463,-0.5980,-0.2218,91.6463,-92.0122,-20.0000
1595877738,0.8248,-0.6003,-0.2252,88.5976,-87.9268,-18.5976
1595877738,0.7938,-0.6005,-0.2190,85.4878,-84.6341,-17.4390
1595877738,0.7857,-0.6038,-0.2036,81.9512,-84.6951,-16.6463
1595877738,0.7834,-0.6088,-0.1881,78.2317,-88.0488,-16.1585
1595877738,0.8026,-0.6147,-0.1822,74.4512,-92.3171,-15.7317
1595877738,0.8162,-0.6160,-0.1752,70.4878,-95.6098,-15.9146
1595877738,0.8246,-0.6158,-0.1826,67.5610,-96.6463,-16.3415
1595877738,0.8318,-0.6128,-0.1699,65.3659,-95.1220,-15.9756
1595877738,0.8330,-0.6086,-0.1364,63.7805,-93.5976,-15.7317
1595877738,0.8397,-0.6174,-0.1304,62.8049,-90.4268,-15.6707
1595877738,0.8366,-0.6259,-0.1331,61.9512,-83.6585,-16.0976
1595877738,0.8053,-0.6277,-0.1292,61.7683,-75.8537,-16.9512
1595877738,0.7650,-0.6291,-0.1260,62.3781,-69.6951,-16.8293
1595877738,0.7537,-0.6281,-0.1216,62.6829,-67.4390,-16.4634
1595877738,0.7474,-0.6353,-0.1152,62.8049,-68.4756,-17.0122
1595877738,0.7440,-0.6422,-0.1178,62.8659,-71.1585,-17.7439
1595877738,0.7530,-0.6458,-0.1216,62.6829,-74.6951,-18.1098
1595877738,0.8044,-0.6453,-0.1194,63.2927,-83.2317,-19.5122
1595877738,0.8098,-0.6459,-0.1324,63.5366,-85.3049,-20.0000
1595877738,0.7951,-0.6401,-0.1463,63.4756,-84.2073,-20.7927
1595877738,0.8084,-0.5739,-0.1565,58.5976,-74.9390,-19.8780
1595877738,0.8010,-0.5674,-0.1675,56.8293,-71.5244,-19.4512
1595877738,0.7949,-0.5590,-0.1716,55.1829,-68.1707,-18.9024
1595877738,0.8034,-0.5484,-0.1856,51.8293,-64.0244,-17.2561
1595877738,0.8098,-0.5437,-0.1905,50.2439,-62.4390,-16.4634
1595877738,0.8099,-0.5444,-0.2039,48.8415,-61.2195,-16.0976
1595877738,0.8134,-0.5543,-0.2209,47.2561,-60.5488,-15.5488
1595877738,0.8335,-0.5739,-0.2361,45.7927,-61.4634,-15.3049
1595877738,0.8803,-0.5997,-0.2862,43.0488,-62.6829,-14.5732
1595877738,0.8955,-0.6026,-0.3000,42.2561,-62.2561,-14.3293
1595877738,0.9062,-0.6039,-0.3232,41.1585,-60.4268,-14.2683
1595877738,0.9066,-0.6046,-0.3533,40.0610,-57.1341,-14.0854
1595877738,0.9026,-0.6010,-0.3794,39.3902,-54.0854,-13.7195
1595877738,0.9010,-0.5965,-0.3954,38.9024,-51.8902,-13.1707
1595877738,0.9005,-0.5919,-0.4119,38.7195,-48.9634,-12.6829
1595877738,0.8883,-0.5816,-0.4343,38.2317,-45.0610,-12.3780
1595877738,0.8740,-0.5654,-0.4651,37.1951,-39.4512,-10.2439
1595877738,0.8885,-0.5519,-0.4746,36.5854,-38.2927,-8.4756
1595877738,0.8973,-0.5353,-0.4834,35.6707,-36.2805,-6.2195
1595877738,0.8973,-0.5221,-0.4885,34.0854,-33.1098,-4.0244
1595877738,0.9036,-0.5116,-0.4901,31.7683,-28.9634,-2.2561
1595877738,0.9032,-0.4983,-0.4944,28.7805,-24.3293,-1.0976
1595877738,0.8942,-0.4868,-0.4999,25.0000,-19.1463,-0.6098
1595877738,0.8774,-0.4786,-0.4928,20.7317,-14.2683,-0.3659
1595877738,0.8618,-0.4661,-0.4825,15.9146,-10.0610,-0.3659
1595877738,0.8509,-0.4626,-0.4705,10.6707,-6.8293,-0.7317
1595877738,0.8435,-0.4557,-0.4495,5.1829,-4.6341,-2.0732
1595877738,0.8296,-0.4348,-0.4342,0.3659,-2.1951,-4.0244
1595877738,0.8107,-0.4201,-0.4222,-4.1463,0.9146,-5.7317
1595877738,0.7932,-0.4066,-0.4066,-8.1707,3.5976,-7.3171
1595877738,0.7667,-0.3774,-0.3973,-14.0854,8.1707,-9.4512
1595877738,0.7532,-0.3778,-0.4026,-16.2805,11.5854,-10.3049
1595877738,0.7405,-0.3945,-0.3991,-19.3293,18.1098,-11.2195
1595877738,0.7394,-0.3915,-0.4005,-19.3293,19.8171,-11.2195
1595877738,0.7360,-0.4092,-0.4276,-19.5122,23.7805,-10.6707
1595877738,0.7348,-0.4252,-0.4477,-19.5122,25.4268,-10.4268
1595877738,0.7793,-0.4286,-0.4300,-20.0610,22.5000,-9.8780
1595877738,0.7966,-0.4357,-0.4572,-20.2439,21.8902,-9.6951
1595877738,0.8125,-0.4454,-0.4838,-21.2195,22.4390,-9.4512
1595877738,0.8237,-0.4542,-0.4971,-22.2561,23.5976,-9.8171
1595877738,0.8613,-0.4603,-0.4961,-24.8780,27.1341,-10.4268
1595877738,0.8617,-0.4639,-0.4929,-26.4634,29.8780,-11.0976
1595877738,0.8484,-0.4651,-0.4775,-28.4146,32.9268,-11.7683
1595877738,0.8445,-0.4622,-0.4543,-32.5610,34.6951,-13.0488
1595877738,0.8348,-0.4615,-0.4456,-34.6951,34.0854,-13.5976
1595877738,0.8303,-0.4595,-0.4282,-36.9512,32.9268,-14.2073
1595877738,0.8264,-0.4547,-0.4106,-38.9024,30.9146,-14.9390
1595877738,0.8239,-0.4479,-0.3921,-40.5488,28.5976,-15.6707
1595877738,0.8245,-0.4517,-0.3876,-41.9512,26.8293,-15.9756
1595877738,0.8264,-0.4527,-0.3844,-42.6829,25.4268,-16.2195
1595877738,0.8339,-0.4592,-0.3761,-42.8049,24.2683,-15.7927
1595877738,0.8428,-0.4660,-0.3626,-42.9268,23.4146,-15.1220
1595877738,0.8595,-0.4751,-0.3556,-42.7439,23.6585,-14.2073
1595877738,0.8720,-0.4915,-0.3481,-41.9512,25.6098,-13.1707
1595877738,0.8737,-0.5063,-0.3450,-41.3415,28.7805,-12.0732
1595877738,0.8801,-0.5212,-0.3361,-41.0976,32.5000,-10.8537
1595877738,0.8900,-0.5413,-0.3203,-40.6098,35.7927,-10.2439
1595877738,0.8864,-0.5651,-0.3118,-40.0610,39.5732,-10.1220
1595877738,0.8704,-0.5851,-0.3024,-39.7561,43.7805,-9.8780
1595877738,0.8502,-0.5981,-0.2845,-38.8415,46.7073,-9.5732
1595877738,0.8427,-0.6087,-0.2684,-37.7439,47.3781,-9.0854
1595877738,0.8351,-0.6198,-0.2451,-36.4634,46.0976,-8.7805
1595877738,0.8310,-0.6713,-0.1625,-29.5122,35.9146,-4.8780
1595877738,0.8204,-0.6699,-0.1169,-23.9634,32.9268,-3.5366
1595877738,0.8139,-0.6670,-0.0992,-20.6707,32.0122,-3.2317
1595877738,0.8109,-0.6730,-0.0912,-17.0122,30.6707,-2.9878
1595877739,0.8030,-0.6901,-0.1070,-9.2683,25.6098,-0.8537
1595877739,0.8093,-0.7106,-0.1169,-5.0000,21.0976,1.7073
1595877739,0.8308,-0.7200,-0.1206,-0.3659,15.4878,5.2439
1595877739,0.8476,-0.7206,-0.1275,4.1463,10.5488,9.3293
1595877739,0.8713,-0.7103,-0.1343,8.2927,7.3171,13.2317
1595877739,0.9025,-0.7012,-0.1417,11.9512,5.2439,16.9512
1595877739,0.9301,-0.6860,-0.1419,15.0000,4.6951,20.4268
1595877739,0.9515,-0.6641,-0.1445,17.3171,5.4878,23.5976
1595877739,0.9678,-0.6513,-0.1462,18.7805,7.3171,26.4024
1595877739,0.9803,-0.6363,-0.1509,19.2073,10.3659,28.4146
1595877739,0.9717,-0.6211,-0.1566,19.0854,14.5732,29.6341
1595877739,0.9598,-0.6028,-0.1567,17.6220,18.5366,29.8780
1595877739,0.9604,-0.5826,-0.1516,15.1829,21.8293,29.1463
1595877739,0.9598,-0.5610,-0.1403,12.2561,24.5122,27.3780
1595877739,0.9519,-0.5428,-0.1301,9.2683,27.0122,24.9390
1595877739,0.9446,-0.5320,-0.1171,6.4634,29.2683,22.5610
1595877739,0.9318,-0.5275,-0.1086,4.0854,31.0366,20.2439
1595877739,0.9119,-0.5313,-0.1094,1.7683,32.6829,17.8049
1595877739,0.8911,-0.5400,-0.1119,-0.0610,34.8780,15.5488
1595877739,0.8719,-0.5539,-0.1125,-1.2805,36.7683,13.4756
1595877739,0.8645,-0.5623,-0.1115,-2.0122,38.0488,11.7683
1595877739,0.8622,-0.5560,-0.1093,-2.3171,38.9634,10.7927
1595877739,0.8573,-0.5505,-0.1088,-1.8293,39.2683,10.2439
1595877739,0.8555,-0.5513,-0.1127,-1.5244,39.7561,9.8780
1595877739,0.8492,-0.5486,-0.1125,-1.2195,41.5244,9.5122
1595877739,0.8396,-0.5359,-0.1107,-0.4878,44.2683,9.3902
1595877739,0.8273,-0.5236,-0.1027,0.3659,46.8902,9.7561
1595877739,0.8138,-0.5135,-0.0995,0.7317,49.2683,10.6098
1595877739,0.8053,-0.4999,-0.1037,0.4268,51.5244,11.6463
1595877739,0.7986,-0.4930,-0.1005,-0.6707,53.5976,13.0488
1595877739,0.7876,-0.4974,-0.0941,-2.3780,55.1220,14.2683
1595877739,0.7830,-0.4990,-0.0818,-4.2683,56.5854,15.0610
1595877739,0.7817,-0.4922,-0.0698,-6.1585,57.5610,15.3659
1595877739,0.7773,-0.4828,-0.0611,-7.5000,57.9878,14.7561
1595877739,0.7614,-0.4792,-0.0466,-8.9634,58.1098,13.9634
1595877739,0.7469,-0.4719,-0.0352,-10.6098,57.7439,12.7439
1595877739,0.7401,-0.4631,-0.0245,-11.9512,56.6463,11.5244
1595877739,0.7337,-0.4592,-0.0217,-13.1707,54.6951,10.3049
1595877739,0.7260,-0.4521,-0.0233,-14.6341,52.6220,9.8171
1595877739,0.7234,-0.4506,-0.0265,-16.2805,50.7317,10.3049
1595877739,0.7285,-0.4595,-0.0327,-18.2317,49.0854,11.2805
1595877739,0.7271,-0.4673,-0.0328,-20.6707,48.1707,12.6829
1595877739,0.7314,-0.4866,-0.0264,-23.4146,47.1951,14.3293
1595877739,0.7430,-0.5081,-0.0152,-25.9756,46.3415,16.1585
1595877739,0.7529,-0.5165,-0.0023,-28.0488,46.0366,17.9268
1595877739,0.7682,-0.5145,0.0026,-29.4512,45.7927,19.2683
1595877739,0.7682,-0.5143,-0.0028,-30.7927,47.2561,19.7561
1595877739,0.7548,-0.5141,-0.0071,-32.0732,50.0000,20.1829
1595877739,0.7517,-0.5173,-0.0013,-33.4146,52.1951,20.9146
1595877739,0.7711,-0.5176,0.0051,-35.3659,53.9024,22.0122
1595877739,0.7850,-0.5187,0.0190,-37.0122,56.8902,23.4756
1595877739,0.7903,-0.5263,0.0346,-38.3537,60.4878,24.6951
1595877739,0.8163,-0.5397,0.0483,-39.7561,64.5122,25.6707
1595877739,0.8335,-0.5493,0.0564,-40.4268,70.1829,25.4268
1595877739,0.8275,-0.5572,0.0644,-40.5488,77.6220,24.2073
1595877739,0.8248,-0.5656,0.0714,-40.2439,84.9390,23.2927
1595877739,0.8148,-0.5751,0.0815,-38.2927,97.9268,20.5488
1595877739,0.7971,-0.5818,0.0882,-37.0732,104.5732,19.5122
1595877739,0.7740,-0.5976,0.0998,-36.2805,110.4878,18.5366
1595877739,0.7559,-0.6060,0.1123,-35.2439,114.3293,17.6220
1595877739,0.7347,-0.6058,0.1207,-33.7805,115.6098,17.0122
1595877739,0.7122,-0.6178,0.1304,-32.3780,111.0976,15.7317
1595877739,0.7055,-0.6260,0.1245,-32.1341,106.4024,14.2683
1595877739,0.7018,-0.6266,0.1150,-32.2561,101.4634,12.8049
1595877739,0.7274,-0.6205,0.1199,-33.9024,89.5732,8.9024
1595877739,0.7292,-0.6133,0.1128,-34.6951,88.5976,7.9268
1595877739,0.7123,-0.7031,0.0919,-41.5854,95.2439,3.2927
1595877739,0.7182,-0.7232,0.0934,-42.2561,95.8537,4.3293
1595877739,0.7165,-0.7302,0.0970,-42.4390,96.4634,5.9146
1595877739,0.7148,-0.7338,0.0806,-42.0122,99.5122,9.6341
1595877739,0.7198,-0.7383,0.0853,-42.0732,102.0732,11.1585
1595877740,0.7237,-0.7352,0.0842,-40.4268,109.7561,12.2561
1595877740,0.6585,-0.7796,0.0355,-30.2439,139.8171,9.6341
1595877740,0.6483,-0.7858,0.0450,-28.0488,142.1951,10.0610
1595877740,0.6362,-0.7862,0.0551,-26.0976,143.4146,10.9146
1595877740,0.6283,-0.7834,0.0593,-24.8171,143.9024,11.7073
1595877740,0.6193,-0.7774,0.0599,-23.1707,142.8659,11.6463
1595877740,0.6382,-0.7827,0.0463,-22.3171,142.1342,10.8537
1595877740,0.6448,-0.7880,0.0393,-21.7073,145.0000,8.8415
1595877740,0.6365,-0.7888,0.0585,-21.7073,151.2805,6.1585
1595877740,0.6168,-0.7859,0.0804,-21.2195,159.0244,2.9268
1595877740,0.5714,-0.7984,0.0972,-21.2805,167.3781,-0.9756
1595877740,0.5173,-0.8140,0.1216,-22.0732,173.8415,-4.5732
1595877740,0.4301,-0.8310,0.1855,-23.5366,172.5000,-9.0244
1595877740,0.3878,-0.8311,0.1948,-24.0244,165.7317,-10.7317
1595877740,0.3486,-0.8393,0.1838,-25.9756,155.9756,-11.7073
1595877740,0.3244,-0.8481,0.1569,-28.2317,144.1463,-11.8293
1595877740,0.3313,-0.8400,0.1473,-27.0732,130.3049,-11.2805
1595877740,0.3707,-0.9330,0.1642,-29.1463,103.0488,-7.4390
1595877740,0.3636,-0.9705,0.2066,-24.8780,92.0732,2.1341
1595877740,0.3546,-1.0002,0.2296,-25.5488,93.2927,6.0366
1595877740,0.3204,-1.0444,0.2458,-23.9634,104.2683,11.2805
1595877740,0.1821,-1.1070,0.2891,-14.1463,101.7683,4.2073
1595877740,0.1342,-1.0771,0.2789,-11.8902,96.6463,-0.1829
1595877740,0.1209,-1.0706,0.2862,-12.7439,79.2683,-6.5854
1595877740,0.1422,-1.0256,0.2735,-9.6951,65.1220,-12.0122
1595877740,0.1344,-0.9667,0.4614,-8.6585,52.5610,-15.0000
1595877740,0.1800,-0.9591,0.4453,-7.8659,40.6707,-16.7683
1595877740,0.2133,-0.9538,0.4061,-9.8780,29.6341,-19.8171
1595877740,0.2405,-0.9556,0.4010,-11.5244,25.1220,-19.9390
1595877740,0.2212,-0.8961,0.3708,-5.0610,31.0366,-20.7927
1595877740,0.1949,-0.8610,0.3823,-4.5732,36.7683,-19.3902
1595877740,0.1735,-0.8414,0.3718,-6.4024,38.7195,-18.2927
1595877740,0.1319,-0.8134,0.3092,-8.3537,37.3171,-17.5610
1595877740,0.2150,-0.8362,0.4068,-11.4634,27.3780,-7.0122
1595877740,0.2496,-0.8598,0.4883,-9.4512,27.9268,-5.0000
1595877740,0.2332,-0.8887,0.5225,-7.1341,23.8415,-6.5244
1595877740,0.1573,-0.8820,0.4926,-7.7439,20.6707,-4.2073
1595877740,0.2031,-0.8965,0.4554,-7.2561,15.5488,0.9146
1595877740,0.2906,-0.8911,0.4888,-3.2927,8.1098,0.9756
1595877740,0.2821,-0.8677,0.5820,1.8902,-3.3537,-0.7317
1595877740,0.3474,-0.8483,0.5716,3.5366,-8.3537,-2.6829
1595877740,0.3557,-0.8234,0.5947,8.0488,-2.5000,-6.4634
1595877740,0.3290,-0.8221,0.6082,10.4268,11.4634,-8.7805
1595877740,0.2988,-0.8333,0.5928,11.4024,25.4268,-8.7805
1595877740,0.2201,-0.8390,0.5490,13.1098,33.5366,-11.2805
1595877740,0.2692,-0.8317,0.5930,17.3780,18.6585,-10.0610
1595877740,0.2589,-0.7995,0.5867,19.7561,17.0732,-10.5488
1595877740,0.2883,-0.8008,0.5249,18.1098,11.3415,-10.9146
1595877740,0.3478,-0.8261,0.5035,18.2317,8.5366,-10.4268
1595877740,0.3819,-0.8667,0.5264,17.9268,8.1098,-9.6951
1595877740,0.3343,-0.8943,0.5082,16.3415,10.0610,-7.9268
1595877740,0.2739,-1.0233,0.4178,11.5244,0.7927,-3.7805
1595877740,0.3388,-1.1146,0.4271,12.8049,-14.5122,-5.0000
1595877740,0.4298,-1.2075,0.4547,17.0732,-35.9146,-10.3659
1595877740,0.4824,-1.2112,0.4137,20.4268,-91.4634,-29.2073
1595877740,0.4865,-1.1454,0.3641,17.3171,-125.1829,-43.0488
1595877740,0.5137,-1.0758,0.3489,12.1951,-160.5488,-59.8171
1595877740,0.6214,-0.9916,0.3644,-1.7073,-219.5122,-92.9268
1595877740,0.6586,-0.8727,0.3387,-22.3171,-244.2073,-115.7927
1595877740,0.6404,-0.8246,0.2850,-39.5122,-249.3293,-126.1585
1595877740,0.6091,-0.7422,0.2387,-54.6951,-258.3537,-134.1463
1595877740,0.5593,-0.6342,0.1984,-70.7927,-271.7683,-135.7927
1595877740,0.5286,-0.5491,0.1400,-85.6098,-284.8781,-135.3659
1595877740,0.4834,-0.4924,0.0768,-98.4146,-294.6951,-133.0488
1595877740,0.3982,-0.4388,0.1063,-110.9146,-302.1951,-123.5366
1595877740,0.3908,-0.3896,0.1637,-117.8659,-306.1585,-109.4512
1595877740,0.4514,-0.3804,0.1488,-121.8293,-299.6342,-93.0488
1595877740,0.4704,-0.3915,0.0789,-126.7683,-284.7561,-76.8902
1595877740,0.5439,-0.4260,0.0873,-122.4390,-266.7073,-65.6098
1595877740,0.6553,-0.4397,0.0977,-107.9268,-247.5610,-55.4268
1595877740,0.8279,-0.4387,0.0668,-91.5244,-225.5488,-46.0366
1595877741,1.0033,-0.4939,0.0671,-77.3781,-194.6342,-40.4268
1595877741,1.0435,-0.5742,0.0832,-64.2683,-158.4756,-37.5610
1595877741,0.1361,-0.5669,0.4705,-16.8902,-65.7317,-17.8049
1595877741,0.1309,-0.5844,-0.0135,4.0244,-67.2561,-3.5976
1595877741,0.4105,-0.6939,-0.1051,-5.3049,-119.0854,2.1951
1595877741,0.7757,-0.5524,-0.0801,-7.8049,-204.3293,-7.5000
1595877741,0.9751,-0.5048,0.0933,19.2073,-245.9756,-10.7317
1595877741,0.9092,-0.6479,0.2129,20.3049,-213.2317,-14.7561
1595877741,0.9297,-0.6795,0.2950,28.1707,-189.7561,-15.4878
1595877741,1.0280,-0.6485,0.1992,38.3537,-182.9878,-9.3293
1595877741,0.9177,-0.5809,-0.2075,50.7317,-126.9512,-6.7683
1595877741,0.8254,-0.5261,-0.3763,43.8415,-84.1463,-4.0854
1595877741,0.8598,-0.5351,-0.3774,38.2927,-76.7683,-1.8902
1595877741,0.8456,-0.5850,-0.3873,27.5610,-60.1829,0.1220
1595877741,0.7949,-0.6046,-0.3629,18.8415,-42.8049,2.7439
1595877741,0.6795,-0.6251,-0.3636,15.4268,-28.1098,1.8293
1595877741,0.6378,-0.6430,-0.3443,10.6098,-29.3902,3.1098
1595877741,0.6325,-0.6427,-0.3438,8.7805,-38.7195,5.0610
1595877741,0.8201,-0.7940,-0.3600,0.7927,-73.1098,1.9512
1595877741,0.9067,-0.8073,-0.3647,3.4756,-72.1341,-2.1951
1595877741,0.8539,-0.7615,-0.3718,8.9634,-55.7317,-4.4512
1595877741,0.6641,-0.7460,-0.1182,15.0610,-36.2805,-1.7683
1595877741,0.8947,-0.7808,-0.2599,35.2439,-62.1951,-13.9024
1595877741,0.7974,-0.6810,-0.2840,44.1463,-43.0488,-9.6341
1595877741,0.6459,-0.6775,-0.3121,53.2317,-6.1585,-8.9024
1595877741,0.6572,-0.7012,-0.3057,60.1220,22.8049,-5.7927
1595877741,0.6965,-0.6868,-0.2926,64.3902,24.3293,-5.7317
1595877741,0.7214,-0.6793,-0.2560,63.9024,25.1220,-5.3049
1595877741,0.7673,-0.7252,-0.1498,50.4268,80.2439,21.2195
1595877741,0.7030,-0.7489,-0.0044,19.8171,50.5488,18.6585
1595877741,0.6456,-0.7142,0.0583,13.5366,40.4878,13.3537
1595877741,0.6803,-0.7162,0.0650,8.2927,37.1951,7.9878
1595877741,0.6742,-0.7084,0.0536,7.1951,37.1341,7.5000
1595877741,0.6573,-0.7077,0.0814,4.0244,39.4512,6.4634
1595877741,0.6339,-0.7106,0.1882,5.8537,44.7561,8.2317
1595877741,0.6015,-0.6968,0.1823,7.7439,49.6341,8.4756
1595877741,0.6394,-0.7130,0.1512,5.1220,37.2561,8.0488
1595877741,0.6287,-0.7302,0.1948,3.7195,27.8049,8.7805
1595877741,0.6457,-0.7761,0.2852,6.4634,15.6707,13.0488
1595877741,0.6893,-0.7993,0.2932,11.0366,15.1220,13.7195
1595877741,0.6964,-0.8015,0.2783,16.9512,20.8537,13.7805
1595877741,0.6525,-0.7714,0.2566,23.4756,32.0732,14.5122
1595877741,0.6246,-0.7619,0.2529,28.1707,43.2317,15.0000
1595877741,0.6112,-0.7621,0.2482,28.4146,49.8781,15.0000
1595877741,0.5771,-0.7487,0.2212,27.0122,50.5488,14.1463
1595877741,0.5476,-0.7498,0.2067,22.5610,45.0610,12.6220
1595877741,0.5594,-0.7585,0.2142,17.0732,34.1463,11.6463
1595877741,0.5816,-0.7818,0.2424,13.9024,23.0488,11.2805
1595877741,0.5914,-0.8010,0.2772,13.5976,17.3780,10.8537
1595877741,0.5930,-0.7994,0.2958,16.2805,19.8780,11.6463
1595877741,0.6010,-0.7877,0.3074,20.1829,30.0000,13.3537
1595877741,0.5741,-0.7694,0.3054,23.2317,44.1463,13.9024
1595877741,0.5387,-0.7568,0.2711,24.0244,56.7683,14.0244
1595877741,0.5041,-0.7489,0.2551,22.5000,63.1098,14.0244
1595877741,0.4846,-0.7354,0.2665,21.0976,60.9146,13.9634
1595877741,0.4993,-0.7259,0.2771,18.9634,50.9756,12.8049
1595877741,0.5054,-0.7117,0.2599,15.3659,38.2317,10.7317
1595877741,0.4803,-0.7086,0.2300,9.6951,26.7073,8.7805
1595877742,0.4723,-0.7257,0.2622,1.2195,11.4634,10.7317
1595877742,0.4651,-0.7277,0.2716,1.1585,11.7683,13.4756
1595877742,0.4419,-0.7267,0.2752,1.8902,18.3537,16.4024
1595877742,0.4170,-0.7136,0.2603,1.2195,25.7927,20.9756
1595877742,0.4130,-0.7171,0.2546,-0.3659,30.1829,25.4268
1595877742,0.4150,-0.7319,0.2608,-2.6220,31.0366,29.3902
1595877742,0.4095,-0.7568,0.2697,-4.8171,29.3293,33.1098
1595877742,0.4084,-0.7922,0.2790,-6.7073,23.9024,35.6098
1595877742,0.4212,-0.8055,0.2891,-6.7683,15.9756,37.9268
1595877742,0.4338,-0.8007,0.3210,-4.9390,10.7927,39.8171
1595877742,0.4108,-0.7989,0.3521,-3.5366,13.4756,42.5610
1595877742,0.3665,-0.8002,0.3709,-3.2317,23.6585,45.1829
1595877742,0.3459,-0.8050,0.3688,-2.1341,33.8415,47.0732
1595877742,0.3104,-0.8079,0.3365,-1.7683,38.4146,48.1098
1595877742,0.3528,-0.8445,0.3161,-4.1463,34.9390,48.6585
1595877742,0.4199,-0.8865,0.3113,-5.6098,27.9268,48.5366
1595877742,0.4274,-0.9146,0.3231,-6.0366,22.5000,47.9268
1595877742,0.4055,-0.9412,0.3434,-7.6220,19.0244,48.7195
1595877742,0.3625,-0.9587,0.3581,-9.1463,14.2683,48.8415
1595877742,0.3152,-0.9494,0.3708,-9.3293,8.5976,47.7439
1595877742,0.3290,-0.9498,0.3668,-7.4390,-2.1341,45.1829
1595877742,0.3575,-0.9367,0.3420,-4.6951,-5.3049,42.9878
1595877742,0.4206,-0.9470,0.3200,-3.3537,-6.7073,41.1585
1595877742,0.4547,-0.9479,0.2986,-2.3171,-5.1220,38.7805
1595877742,0.4269,-0.9523,0.2858,-2.6829,0.5488,36.7073
1595877742,0.3170,-0.9564,0.2639,-4.9390,7.1951,35.0000
1595877742,0.3701,-1.1031,0.2886,-5.1220,10.8537,31.6463
1595877742,0.4526,-1.2947,0.3878,-3.9024,5.9756,17.6829
1595877742,0.4783,-1.2121,0.4673,-3.3537,-25.7317,3.2317
1595877742,0.4661,-1.0444,0.4513,-0.9756,-55.5488,0.4878
1595877742,0.3651,-0.9326,0.3693,-2.4390,-68.3537,-6.8293
1595877742,0.2797,-0.8803,0.3100,-4.7561,-70.4268,-13.6585
1595877742,0.2271,-0.8340,0.2823,-3.9024,-71.2805,-15.0000
1595877742,0.1909,-0.8171,0.2641,-3.8415,-71.0976,-14.0244
1595877742,0.2115,-0.8588,0.2679,-7.4390,-66.5854,-12.3780
1595877742,0.2975,-0.8667,0.2931,-9.8780,-58.5976,-9.6341
1595877742,0.4540,-0.9388,0.3256,-7.3171,-51.1585,-5.6098
