time,ax,ay,az,gx,gy,gz
1595878848,0.2993,0.9165,0.3230,1.2195,-0.6098,-1.1585
1595878848,0.3019,0.9260,0.3259,1.2805,-0.0610,-0.8537
1595878848,0.2969,0.9271,0.3245,1.3415,0.3049,-0.7317
1595878848,0.2939,0.9260,0.3245,1.2805,0.1829,-0.7317
1595878848,0.2957,0.9243,0.3289,1.3415,-0.4268,-0.6098
1595878848,0.2977,0.9237,0.3310,1.1585,-1.0976,-0.5488
1595878848,0.2980,0.9248,0.3332,1.0976,-1.4024,-0.4268
1595878848,0.3019,0.9225,0.3353,1.2195,-1.4634,-0.4268
1595878848,0.3032,0.9208,0.3356,1.4634,-1.2805,-0.4878
1595878848,0.3029,0.9196,0.3342,1.5244,-0.9146,-0.6098
1595878848,0.3017,0.9197,0.3357,1.5854,-0.4268,-0.6707
1595878848,0.2987,0.9213,0.3351,1.6463,0.1220,-0.6098
1595878848,0.2995,0.9222,0.3329,1.4634,0.6707,-0.6098
1595878848,0.2989,0.9218,0.3342,1.5244,0.9756,-0.4268
1595878848,0.2946,0.9233,0.3344,1.4634,0.8537,-0.3049
1595878848,0.2952,0.9212,0.3340,1.2195,0.3049,-0.2439
1595878848,0.2954,0.9224,0.3357,1.0366,-0.2439,-0.1829
1595878848,0.2949,0.9204,0.3381,0.8537,-0.7317,-0.1220
1595878848,0.2976,0.9208,0.3368,0.7317,-0.9756,0.0000
1595878848,0.2993,0.9246,0.3366,0.5488,-1.2195,-0.0610
1595878848,0.2994,0.9246,0.3390,0.4878,-1.2195,-0.0610
1595878848,0.3007,0.9246,0.3354,0.4878,-0.9756,-0.1220
1595878848,0.2996,0.9274,0.3390,0.4268,-0.7317,-0.1220
1595878848,0.2955,0.9274,0.3390,0.3659,-0.4878,-0.2439
1595878848,0.2949,0.9274,0.3364,0.3659,-0.2439,-0.3049
1595878848,0.2929,0.9269,0.3334,0.3659,-0.2439,-0.3049
1595878848,0.2906,0.9241,0.3281,0.3659,-0.5488,-0.0610
1595878848,0.2914,0.9247,0.3263,0.2439,-1.0976,0.0610
1595878848,0.2915,0.9225,0.3260,0.0610,-1.5854,0.1829
1595878848,0.2929,0.9216,0.3263,-0.0610,-1.8293,0.1829
1595878848,0.2952,0.9244,0.3304,-0.0610,-1.7683,0.0000
1595878848,0.2979,0.9243,0.3297,-0.0610,-1.5244,-0.1829
1595878848,0.2991,0.9213,0.3304,0.1220,-1.1585,-0.2439
1595878848,0.2981,0.9202,0.3314,0.3659,-0.8537,-0.3659
1595878848,0.2999,0.9215,0.3281,0.4268,-0.3659,-0.5488
1595878848,0.2975,0.9244,0.3269,0.5488,0.0000,-0.6707
1595878848,0.2965,0.9249,0.3264,0.6098,0.1829,-0.7317
1595878848,0.2971,0.9241,0.3275,0.5488,0.0000,-0.6098
1595878848,0.2957,0.9238,0.3267,0.3049,-0.4268,-0.4878
1595878848,0.2948,0.9235,0.3255,0.1220,-0.9146,-0.3049
1595878848,0.2990,0.9255,0.3254,0.0000,-1.4024,-0.3049
1595878848,0.2993,0.9290,0.3229,0.0000,-1.7683,-0.1829
1595878848,0.3007,0.9290,0.3257,0.0610,-1.7683,-0.1829
1595878848,0.2980,0.9262,0.3267,0.2439,-1.4634,-0.2439
1595878848,0.2965,0.9263,0.3279,0.3659,-0.9756,-0.1829
1595878848,0.2961,0.9230,0.3294,0.5488,-0.6707,-0.1829
1595878848,0.2944,0.9227,0.3278,0.7317,-0.4268,-0.2439
1595878848,0.2940,0.9195,0.3272,0.9146,-0.2439,-0.3659
1595878848,0.2957,0.9218,0.3307,0.9146,-0.1829,-0.4268
1595878848,0.2978,0.9255,0.3284,0.7927,-0.1829,-0.4878
1595878848,0.2958,0.9252,0.3306,0.8537,-0.3049,-0.5488
1595878849,0.2960,0.9246,0.3304,0.7927,-0.3659,-0.5488
1595878849,0.2985,0.9238,0.3306,0.7927,-0.3659,-0.6098
1595878849,0.3011,0.9244,0.3334,0.7317,-0.6707,-0.6707
1595878849,0.2993,0.9217,0.3358,0.4878,-0.7317,-0.6707
1595878849,0.2997,0.9189,0.3351,0.6098,-0.6707,-0.6098
1595878849,0.2991,0.9205,0.3331,0.5488,-0.6707,-0.6098
1595878849,0.3003,0.9209,0.3344,0.5488,-0.6707,-0.4878
1595878849,0.3011,0.9193,0.3338,0.5488,-0.7927,-0.4878
1595878849,0.3007,0.9194,0.3338,0.3659,-0.9146,-0.4878
1595878849,0.3010,0.9192,0.3345,0.3049,-0.9146,-0.4878
1595878849,0.3017,0.9216,0.3321,0.2439,-0.8537,-0.4268
1595878849,0.3036,0.9227,0.3306,0.1829,-0.9756,-0.3659
1595878849,0.3059,0.9231,0.3289,0.0000,-0.9756,-0.2439
1595878849,0.3062,0.9239,0.3278,0.0000,-0.8537,-0.1829
1595878849,0.3038,0.9247,0.3288,0.0000,-0.6707,-0.2439
1595878849,0.3048,0.9228,0.3292,0.0000,-0.4268,-0.1829
1595878849,0.3030,0.9225,0.3287,0.1220,-0.3049,-0.1829
1595878849,0.3029,0.9225,0.3295,0.2439,-0.2439,-0.1829
1595878849,0.3020,0.9225,0.3291,0.3049,0.0000,-0.1829
1595878849,0.3044,0.9230,0.3293,0.3049,0.0610,-0.1220
1595878849,0.3031,0.9250,0.3287,0.2439,0.0000,-0.1220
1595878849,0.3000,0.9239,0.3292,0.2439,0.0000,0.0000
1595878849,0.3027,0.9214,0.3261,0.2439,-0.2439,0.0000
1595878849,0.3019,0.9211,0.3282,0.1220,-0.3049,0.0610
1595878849,0.3022,0.9204,0.3288,0.1220,-0.3049,0.1829
1595878849,0.2995,0.9201,0.3292,0.1220,-0.3659,0.2439
1595878849,0.2986,0.9209,0.3297,0.1829,-0.1220,0.1220
1595878849,0.2931,0.9225,0.3288,0.3049,0.0000,0.0000
1595878849,0.2905,0.9233,0.3273,0.3049,-0.1220,0.1220
1595878849,0.2933,0.9197,0.3256,0.3049,-0.4268,0.1220
1595878849,0.2920,0.9229,0.3240,0.3049,-0.9146,0.0000
1595878849,0.2938,0.9252,0.3257,0.1829,-1.2805,-0.1829
1595878849,0.2966,0.9265,0.3240,0.2439,-1.4634,-0.3049
1595878849,0.2960,0.9260,0.3248,0.2439,-1.4024,-0.3659
1595878849,0.2982,0.9257,0.3269,0.1220,-0.9756,-0.4268
1595878849,0.2975,0.9242,0.3282,0.1220,-0.6707,-0.4878
1595878849,0.2969,0.9250,0.3300,0.1829,-0.4268,-0.4878
1595878849,0.2976,0.9227,0.3293,0.3659,-0.3049,-0.4268
1595878849,0.2975,0.9196,0.3276,0.4878,-0.6098,-0.3659
1595878849,0.2990,0.9226,0.3276,0.7317,-0.8537,-0.2439
1595878849,0.3043,0.9239,0.3303,0.6707,-1.0366,-0.3049
1595878849,0.3058,0.9237,0.3339,0.5488,-1.2805,-0.6098
1595878849,0.3057,0.9196,0.3342,0.6098,-0.9146,-0.7927
1595878849,0.3024,0.9193,0.3361,0.7927,-0.3049,-0.9146
1595878849,0.3045,0.9234,0.3353,0.7927,0.0000,-1.1585
1595878849,0.3082,0.9247,0.3340,0.5488,-0.3049,-1.1585
1595878849,0.3079,0.9241,0.3309,0.4878,-0.7317,-0.9756
1595878849,0.3098,0.9241,0.3317,0.3659,-1.0366,-0.7927
1595878849,0.3086,0.9237,0.3347,0.2439,-1.2195,-0.4878
1595878849,0.3109,0.9223,0.3323,0.0610,-1.5244,-0.1829
1595878849,0.3080,0.9218,0.3306,-0.0610,-1.6463,0.1829
1595878849,0.3049,0.9219,0.3306,-0.1220,-1.2805,0.4268
1595878849,0.3024,0.9215,0.3308,-0.1220,-0.9146,0.4878
1595878849,0.3009,0.9208,0.3293,-0.1220,-0.4878,0.2439
1595878849,0.2969,0.9227,0.3301,0.0000,-0.3049,0.1829
1595878849,0.2969,0.9236,0.3297,0.0610,-0.3659,0.0000
1595878849,0.3029,0.9286,0.3287,0.0610,-0.7317,-0.0610
1595878849,0.3088,0.9271,0.3317,-0.0610,-1.4024,-0.1829
1595878849,0.3127,0.9280,0.3315,-0.1220,-2.1341,-0.1220
1595878849,0.3165,0.9225,0.3259,-0.0610,-2.8049,0.2439
1595878849,0.2986,0.9249,0.3307,0.0610,-3.5976,0.7927
1595878849,0.3045,0.9307,0.3329,1.2195,-6.0366,1.2195
1595878849,0.3257,0.9243,0.3333,0.1829,-9.3293,1.9512
1595878849,0.3309,0.9254,0.3304,-0.9756,-11.2805,2.9878
1595878849,0.3197,0.9282,0.3274,-0.6707,-11.2195,3.5976
1595878849,0.3141,0.9229,0.3237,-0.1829,-10.6707,3.7805
1595878849,0.3256,0.9198,0.3242,-0.1829,-11.0366,3.8415
1595878849,0.3356,0.9164,0.3259,-0.6707,-11.1585,4.0854
1595878849,0.3281,0.9121,0.3263,-0.8537,-9.8780,4.0854
1595878849,0.3209,0.9124,0.3259,-0.3659,-7.8659,3.5976
1595878849,0.3171,0.9119,0.3273,-0.3049,-6.4024,3.0488
1595878849,0.3182,0.9117,0.3304,-0.4878,-5.5488,2.8049
1595878849,0.3184,0.9124,0.3304,-0.5488,-4.7561,2.6220
1595878849,0.3160,0.9141,0.3305,-0.6098,-3.7195,2.3780
1595878849,0.3162,0.9158,0.3278,-0.4878,-2.6220,2.0732
1595878849,0.3171,0.9181,0.3268,-0.3659,-1.4634,1.6463
1595878849,0.3120,0.9183,0.3264,-0.3659,-0.4268,1.4024
1595878849,0.3073,0.9196,0.3259,-0.1220,0.3049,1.2195
1595878849,0.3051,0.9218,0.3268,0.0000,0.7317,0.9756
1595878849,0.3044,0.9216,0.3281,-0.1220,0.9146,0.7927
1595878849,0.3026,0.9233,0.3263,-0.1220,0.9146,0.7317
1595878849,0.3002,0.9227,0.3261,-0.1220,0.7317,0.6707
1595878849,0.3021,0.9227,0.3251,-0.1220,0.4268,0.5488
1595878849,0.3019,0.9220,0.3277,-0.1829,0.1220,0.3049
1595878849,0.3051,0.9209,0.3283,-0.1829,-0.0610,0.0000
1595878849,0.3041,0.9207,0.3223,-0.1220,0.0610,-0.1829
1595878849,0.2959,0.9226,0.3220,0.1220,0.4878,-0.4268
1595878849,0.2968,0.9275,0.3220,0.4268,0.6707,-0.8537
1595878849,0.3013,0.9292,0.3205,0.4268,0.2439,-0.9756
1595878849,0.3008,0.9296,0.3226,0.1829,-0.5488,-1.0366
1595878849,0.2969,0.9328,0.3219,0.1829,-1.2195,-1.1585
1595878849,0.2956,0.9364,0.3187,0.1220,-1.7073,-1.2805
1595878849,0.3008,0.9320,0.3141,-0.1829,-2.1341,-1.4024
1595878850,0.3022,0.9283,0.3149,-0.3659,-3.0488,-1.2195
1595878850,0.2943,0.9294,0.3178,-0.4268,-3.4146,-1.2805
1595878850,0.2885,0.9304,0.3194,-0.3659,-3.4146,-1.5244
1595878850,0.2893,0.9284,0.3256,-0.4878,-3.7195,-1.5244
1595878850,0.2866,0.9300,0.3351,-0.6707,-4.2683,-1.7073
1595878850,0.2731,0.9453,0.3377,-0.7927,-4.3293,-1.9512
1595878850,0.2633,0.9600,0.3386,-0.8537,-4.5122,-1.8902
1595878850,0.2545,0.9608,0.3374,-1.3415,-5.4878,-1.6463
1595878850,0.2533,0.9498,0.3319,-2.6829,-6.4024,-1.2805
1595878850,0.2445,0.9417,0.3267,-3.4756,-7.0732,-1.1585
1595878850,0.2431,0.9415,0.3317,-3.2317,-7.8049,-1.3415
1595878850,0.2466,0.9406,0.3505,-3.2317,-8.5366,-1.9512
1595878850,0.2333,0.9315,0.3757,-3.7195,-9.5122,-3.1098
1595878850,0.2098,0.9338,0.4045,-4.0244,-10.2439,-4.4512
1595878850,0.1810,0.9459,0.4388,-4.5732,-11.7683,-6.8293
1595878850,0.1426,0.9532,0.4658,-6.7073,-15.1220,-9.7561
1595878850,0.1271,0.9578,0.4703,-9.6341,-21.4634,-12.8659
1595878850,0.1300,0.9624,0.4774,-12.8049,-30.5488,-15.6707
1595878850,0.1215,0.9583,0.4836,-16.0976,-41.0366,-18.1707
1595878850,0.1343,0.9437,0.4838,-19.8780,-50.9756,-20.6707
1595878850,0.1760,0.9278,0.4980,-23.6585,-60.3049,-23.6585
1595878850,0.1865,0.9136,0.5510,-25.9756,-67.1951,-25.7317
1595878850,0.1784,0.9001,0.5979,-26.2805,-70.4268,-27.7439
1595878850,0.2012,0.8995,0.6625,-26.7073,-73.9634,-30.1829
1595878850,0.2197,0.9026,0.7215,-28.9634,-78.0488,-31.5244
1595878850,0.2359,0.8940,0.7611,-31.4024,-79.6341,-32.3780
1595878850,0.2554,0.8945,0.7899,-33.1707,-79.0854,-33.0488
1595878850,0.2742,0.9099,0.8179,-34.0854,-78.6585,-32.6829
1595878850,0.2889,0.9255,0.8476,-35.9146,-79.2073,-31.8902
1595878850,0.3049,0.9401,0.8572,-38.3537,-80.9146,-30.9146
1595878850,0.3283,0.9446,0.8588,-42.1951,-83.9634,-30.1220
1595878850,0.3514,0.9498,0.8585,-47.3171,-88.2317,-29.4512
1595878850,0.3669,0.9604,0.8576,-51.8293,-91.2195,-29.0244
1595878850,0.3885,0.9648,0.8566,-56.5244,-91.8902,-27.5610
1595878850,0.4268,0.9586,0.8547,-62.4390,-92.1951,-25.6098
1595878850,0.4808,0.9575,0.8544,-68.9634,-93.9634,-24.3293
1595878850,0.5331,0.9675,0.8546,-75.5488,-95.3659,-22.7439
1595878850,0.5583,0.9727,0.8269,-82.1341,-95.3659,-20.3659
1595878850,0.5697,0.9908,0.7928,-88.0488,-95.8537,-17.3780
1595878850,0.5753,0.9936,0.7604,-93.4756,-98.9634,-14.2073
1595878850,0.5925,0.9865,0.7332,-100.3049,-104.8171,-11.0976
1595878850,0.6320,0.9879,0.7146,-106.8902,-113.3537,-7.5000
1595878850,0.6596,0.9911,0.6785,-113.9634,-120.7927,-2.8659
1595878850,0.6850,0.9825,0.6428,-120.6707,-125.0000,2.8659
1595878850,0.6791,0.9670,0.5900,-126.1585,-128.5366,8.8415
1595878850,0.6830,0.9745,0.5158,-128.2927,-136.9512,12.7439
1595878850,0.7421,0.9724,0.4617,-130.6098,-150.4268,18.3537
1595878850,0.8072,0.9482,0.4155,-135.4268,-163.7195,26.2195
1595878850,0.8135,0.9291,0.3718,-137.2561,-173.1098,33.2317
1595878850,0.8177,0.9180,0.3331,-135.4268,-181.9512,40.4878
1595878850,0.8195,0.8956,0.2667,-133.5976,-203.2927,58.8415
1595878850,0.8572,0.8767,0.2050,-131.2195,-216.2195,68.1707
1595878850,0.9088,0.8573,0.1458,-127.4390,-228.1098,77.8049
1595878850,0.9363,0.8391,0.1033,-122.9878,-236.3415,87.6829
1595878850,0.9547,0.8194,0.0812,-117.1951,-240.1220,96.1585
1595878850,0.9644,0.8046,0.0634,-110.0000,-243.6585,103.9634
1595878850,1.0230,0.7899,-0.0246,-93.8415,-255.4268,122.4390
1595878850,1.0517,0.7689,-0.0583,-85.4268,-255.2439,130.6707
1595878850,1.0594,0.7310,-0.1040,-76.4634,-251.0366,136.0976
1595878850,1.0186,0.7218,-0.1273,-66.9512,-244.1463,140.2439
1595878850,0.9642,0.7283,-0.1384,-55.0000,-235.3049,143.5976
1595878850,0.9663,0.7260,-0.1387,-43.1707,-225.0610,145.1219
1595878850,1.0083,0.7285,-0.1469,-30.6707,-218.6585,145.5488
1595878850,1.0057,0.7225,-0.1948,-18.1707,-213.5366,146.3415
1595878850,0.9308,0.6910,-0.2607,-0.4878,-192.1951,146.2805
1595878850,0.8780,0.6606,-0.3174,11.2805,-176.4634,144.3293
1595878850,0.8984,0.6105,-0.3500,22.0122,-163.1707,140.7317
1595878850,0.9341,0.5941,-0.3792,33.7805,-152.3171,136.3415
1595878850,0.9418,0.5830,-0.4412,45.8537,-141.0366,132.9268
1595878850,0.9205,0.5780,-0.4945,54.8171,-127.5610,129.6951
1595878850,0.8602,0.5815,-0.5356,65.0610,-113.7195,126.4024
1595878850,0.7830,0.5817,-0.5633,76.8902,-103.1707,123.5976
1595878850,0.7828,0.5648,-0.5791,86.4024,-98.4146,120.9756
1595878850,0.8257,0.5358,-0.5808,94.8781,-97.0732,116.5854
1595878850,0.8498,0.4910,-0.5962,102.9268,-93.5366,112.0732
1595878850,0.8623,0.4582,-0.6293,110.8537,-86.5244,107.8049
1595878850,0.8213,0.4399,-0.7350,128.5366,-65.7927,98.4146
1595878850,0.8404,0.4772,-0.7468,139.6951,-59.2683,93.4756
1595878850,0.8746,0.5204,-0.7095,152.6829,-55.1220,89.2683
1595878850,0.8516,0.5367,-0.6727,166.7683,-51.7683,86.2195
1595878850,0.8217,0.5156,-0.6731,178.4756,-47.8049,84.3293
1595878850,0.8200,0.4896,-0.6717,187.5610,-45.0000,82.4390
1595878850,0.8057,0.4834,-0.6816,196.4634,-42.3780,80.5488
1595878850,0.8217,0.4788,-0.7067,203.7195,-39.1463,78.2317
1595878850,0.8572,0.4778,-0.6713,224.5732,-27.8659,68.8415
1595878850,0.8214,0.4761,-0.7058,229.8171,-27.7439,66.4634
1595878850,0.7666,0.4799,-0.7333,233.9634,-26.9512,63.4146
1595878850,0.7288,0.4753,-0.7173,239.6951,-25.5488,59.0244
1595878850,0.7660,0.4428,-0.6879,243.9634,-19.7561,52.2561
1595878851,0.8376,0.4286,-0.6501,246.0976,-9.6341,44.4512
1595878851,0.8900,0.4070,-0.6104,249.5122,0.4268,38.9024
1595878851,0.9030,0.3715,-0.5704,252.0122,6.1585,34.3902
1595878851,0.8649,0.3615,-0.5812,254.2683,6.1585,32.7439
1595878851,0.8348,0.3646,-0.6712,255.7317,-2.8659,33.9024
1595878851,0.8580,0.3871,-0.7556,255.3049,-18.2317,35.1829
1595878851,0.9301,0.4131,-0.7746,256.4024,-30.0610,34.2073
1595878851,0.9637,0.4354,-0.7767,261.1585,-28.4146,30.3659
1595878851,1.0068,0.4578,-0.7670,270.6098,-11.5854,24.4512
1595878851,1.1092,0.5139,-0.7236,283.7805,15.1220,16.0976
1595878851,1.2122,0.6536,-0.6199,302.6829,45.5488,11.6463
1595878851,1.1924,0.8505,-0.0995,357.8659,53.3537,52.9878
1595878851,1.1105,0.7255,-0.1658,360.0610,23.9024,78.9024
1595878851,1.1963,0.6334,-0.2033,363.5366,-12.5610,101.0976
1595878851,-0.7117,1.7247,1.9999,360.6707,-52.5610,129.2683
1595878851,-1.8722,1.9999,0.6311,195.0610,-105.0000,108.2927
1595878851,-0.2540,-0.3512,-1.9999,15.4268,-614.9390,-0.9146
1595878851,1.9999,-0.8834,-1.6705,-102.6829,-758.7805,100.5488
1595878851,1.9999,-0.1645,0.2115,112.8659,-406.8903,124.6951
1595878851,1.9482,-0.2401,0.7557,220.3659,-204.2683,87.5000
1595878851,1.6590,0.0085,0.1931,12.8049,-21.4024,190.1219
1595878851,1.0848,0.2415,-0.2096,53.1707,130.3049,127.0122
1595878851,0.5001,0.0615,-0.3376,111.0976,231.2805,39.2683
1595878851,0.0367,-0.5526,-0.2991,93.7195,214.9390,42.6829
1595878851,0.4462,-1.0660,-0.1137,39.2073,151.9512,40.3049
1595878851,0.9174,-0.9274,0.0839,21.0976,93.9024,22.8049
1595878851,0.5032,-0.6520,0.0252,59.5122,68.4756,29.5122
1595878851,-0.1712,-0.5641,-0.0512,68.1707,89.5732,58.4146
1595878851,-0.2791,-0.5648,-0.1204,59.2683,97.0122,51.3415
1595878851,0.2850,-0.4995,-0.0823,46.2805,69.4512,27.8659
1595878851,0.9744,-0.5263,-0.0209,43.2927,23.5366,6.8902
1595878851,1.1627,-0.6160,0.0034,40.4268,-6.9512,4.5732
1595878851,0.9690,-0.6396,0.0336,32.6220,-7.0732,19.3293
1595878851,0.7982,-0.5405,0.0963,26.2805,10.3049,26.8902
1595878851,0.7631,-0.4191,0.0737,24.9390,24.7561,28.7195
1595878851,0.8224,-0.4053,0.0217,24.0244,27.3780,29.6951
1595878851,0.9139,-0.4680,-0.0074,20.8537,19.7561,26.8293
1595878851,0.9473,-0.5322,-0.0289,19.1463,15.3049,22.5610
1595878851,0.9069,-0.5411,-0.0214,19.4512,22.1951,18.4756
1595878851,0.8898,-0.4947,0.0446,22.6829,33.2927,14.3902
1595878851,0.8864,-0.4520,0.1012,26.6463,42.5000,9.5732
1595878851,0.8410,-0.4411,0.0834,27.3171,50.4878,5.1220
1595878851,0.7684,-0.4401,0.0870,25.3659,56.4024,3.2317
1595878851,0.7131,-0.4402,0.0968,23.5976,56.7073,2.1341
1595878851,0.6924,-0.4356,0.1016,21.3415,55.9756,0.0000
1595878851,0.6804,-0.4349,0.0940,18.2927,58.0488,-0.9146
1595878851,0.6754,-0.4447,0.0703,15.2439,59.6341,-0.3659
1595878851,0.6829,-0.4542,0.0515,13.4756,57.9878,0.1829
1595878851,0.7061,-0.4637,0.0571,13.2317,51.8293,0.4878
1595878851,0.7422,-0.4821,0.0744,14.2683,42.8659,0.9146
1595878851,0.7736,-0.5054,0.1043,15.5488,33.5366,1.2195
1595878851,0.7742,-0.5293,0.1412,16.2805,25.3049,1.8902
1595878851,0.7653,-0.5455,0.1514,16.4634,17.9878,2.2561
1595878851,0.7732,-0.5487,0.1650,15.3659,12.0122,2.2561
1595878851,0.7899,-0.5346,0.1742,13.7195,8.2317,2.0732
1595878851,0.7908,-0.5264,0.1601,12.7439,6.8293,1.8293
1595878851,0.7946,-0.5264,0.1389,12.0122,5.2439,2.0732
1595878851,0.8068,-0.5105,0.1140,11.6463,3.1098,1.9512
1595878851,0.8283,-0.4914,0.0983,12.2561,1.4024,1.2195
1595878851,0.8535,-0.4821,0.1287,13.1707,-0.7927,0.4268
1595878851,0.8604,-0.4738,0.1738,13.4756,-2.3171,-0.2439
1595878851,0.8208,-0.4700,0.1904,13.4756,-0.4878,-0.7927
1595878851,0.7761,-0.4767,0.1881,12.8659,3.1098,-1.2195
1595878851,0.7646,-0.4819,0.1697,11.5854,5.4268,-1.4634
1595878851,0.7871,-0.4716,0.1414,10.9146,4.3293,-1.1585
1595878851,0.8061,-0.4524,0.0792,10.6098,1.4634,-0.2439
1595878851,0.8471,-0.4295,0.0060,10.9146,-1.8902,0.7927
1595878851,0.9001,-0.4023,-0.0478,12.5610,-5.1829,1.8293
1595878851,0.9469,-0.3647,-0.0795,15.4268,-8.0488,3.1707
1595878851,0.9410,-0.3341,-0.0690,19.3293,-8.9634,4.5122
1595878851,0.8883,-0.3091,-0.0290,22.6220,-7.4390,5.9756
1595878851,0.8021,-0.2853,0.0274,25.6707,-5.1220,7.0122
1595878851,0.7210,-0.2656,0.0824,28.5976,-4.4512,8.4146
1595878851,0.6701,-0.2496,0.1139,30.7927,-5.6098,9.7561
1595878851,0.6286,-0.2343,0.1356,32.6220,-7.5610,10.8537
1595878851,0.6077,-0.2184,0.1627,35.1829,-9.1463,11.0366
1595878851,0.6343,-0.2300,0.1666,39.5732,-8.8415,8.8415
1595878851,0.6728,-0.2571,0.2018,39.8780,-6.2195,5.4878
1595878851,0.7004,-0.2434,0.2049,36.8902,2.4390,1.8293
1595878851,0.6694,-0.2127,0.1871,35.3049,21.7073,-5.7927
1595878851,0.6051,-0.1707,0.1611,34.6341,41.8902,-14.5732
1595878851,0.5716,-0.1103,0.1436,34.3902,54.0244,-22.6220
1595878851,0.5111,-0.0509,0.1755,34.2073,58.4146,-30.7317
1595878851,0.4193,-0.0112,0.2039,34.0854,56.4634,-38.5976
1595878851,0.3752,0.0130,0.2302,34.2073,49.8171,-46.7683
1595878851,0.3773,0.0186,0.2505,34.3293,37.9268,-54.0854
1595878851,0.3796,-0.0566,0.2524,33.6585,22.3780,-59.3902
1595878851,0.3666,-0.0985,0.2163,25.9756,6.7683,-68.1707
1595878851,0.3724,-0.0676,0.1671,21.4024,-3.9024,-78.7805
1595878851,0.4313,-0.0001,0.1489,21.9512,-16.6463,-87.5000
1595878851,0.5155,0.0389,0.1798,18.9024,-30.9756,-95.7927
1595878851,0.6432,0.0825,0.2730,12.3780,-41.0976,-104.6341
1595878851,0.7511,0.1244,0.3599,6.4024,-45.1829,-114.0244
1595878851,0.7451,0.1253,0.4388,-1.4024,-45.7927,-122.3781
1595878851,0.7275,0.0787,0.4370,-13.1707,-44.3293,-129.0244
1595878851,0.7171,0.0333,0.4053,-25.5488,-38.4146,-138.4756
1595878851,0.7430,0.0220,0.3454,-36.9512,-36.0366,-148.2317
1595878851,0.8902,0.0400,0.1924,-47.0732,-37.8049,-156.7683
1595878851,1.0452,0.0736,0.0130,-55.6707,-42.6829,-164.8171
1595878851,1.0482,0.1102,-0.0849,-62.7439,-47.3781,-171.2195
1595878851,1.0785,0.1719,-0.1076,-68.9024,-45.7927,-176.6463
1595878851,1.1647,0.2084,-0.1674,-69.7561,-36.9512,-186.4634
1595878851,1.3259,0.1681,-0.2866,-69.8171,-22.1341,-196.4634
1595878851,1.5311,0.3157,-0.2640,-69.7561,7.8049,-211.8902
1595878851,1.6339,0.5016,-0.1242,-57.0732,58.1098,-214.9390
1595878851,1.6920,0.3890,0.0153,-53.7805,122.3171,-197.2561
1595878851,1.7116,0.2519,0.1249,-61.0976,181.7073,-193.4756
1595878851,1.4670,0.1096,0.1586,-64.9390,225.9756,-192.7439
1595878851,1.1126,0.0208,0.2748,-63.7195,242.7439,-195.1219
1595878851,0.9206,0.1031,0.3809,-55.1829,224.7561,-205.3659
1595878851,0.8453,0.2484,0.4245,-49.5122,186.2195,-212.6220
1595878851,0.7980,0.2695,0.4363,-49.5122,141.5854,-216.0366
1595878851,0.8071,0.2723,0.4343,-52.4390,94.8781,-224.5122
1595878851,0.8875,0.3370,0.4266,-53.7195,49.3902,-232.4390
1595878851,1.0282,0.4268,0.4150,-55.4878,8.3537,-236.6463
1595878851,1.1821,0.5002,0.3900,-60.3049,-22.5000,-241.0976
1595878851,1.2667,0.5104,0.3283,-67.0732,-39.6951,-245.5488
1595878851,1.2145,0.4767,0.2555,-71.8902,-46.7683,-248.8415
1595878851,1.1696,0.4764,0.1888,-70.4268,-59.7561,-251.7073
1595878851,1.2690,0.5311,0.1122,-68.2317,-86.8902,-252.9268
1595878852,1.3694,0.5829,0.0673,-67.9878,-124.0854,-249.2683
1595878852,1.3939,0.5928,0.0621,-69.0244,-161.1585,-240.7317
1595878852,1.3789,0.5548,0.0775,-70.3659,-188.5366,-230.3049
1595878852,1.3721,0.5057,0.0903,-72.9878,-206.5854,-220.2439
1595878852,1.3653,0.4757,0.1043,-74.5122,-216.7073,-208.7195
1595878852,1.3643,0.4550,0.0919,-75.1220,-220.7927,-195.1829
1595878852,1.3706,0.4250,0.0638,-76.4634,-218.9025,-182.3171
1595878852,1.3410,0.3953,0.0339,-77.8659,-210.0610,-171.1585
1595878852,1.2808,0.3697,-0.0005,-79.3293,-193.7805,-161.8902
1595878852,1.1981,0.3414,-0.0367,-81.0976,-170.9756,-155.6098
1595878852,1.1127,0.3279,-0.0662,-81.5854,-146.2805,-152.1342
1595878852,1.0345,0.3298,-0.0883,-80.8537,-121.9512,-150.9756
1595878852,0.9689,0.3214,-0.1006,-80.6707,-98.3537,-151.8902
1595878852,0.9157,0.3173,-0.0818,-79.5732,-76.7073,-154.9390
1595878852,0.8675,0.3320,-0.0509,-75.6098,-57.6829,-159.7561
1595878852,0.8091,0.3661,-0.0314,-70.4878,-40.9756,-165.1829
1595878852,0.7517,0.4186,-0.0020,-65.4878,-28.1098,-170.6707
1595878852,0.7028,0.5013,0.0352,-60.8537,-19.3902,-177.1951
1595878852,0.6642,0.5914,0.0480,-57.3171,-14.3902,-184.4512
1595878852,0.6519,0.6918,0.0561,-53.1098,-14.7561,-192.9878
1595878852,0.6824,0.8108,0.0656,-47.5610,-17.9268,-200.8537
1595878852,0.7433,0.9319,0.0709,-43.5366,-21.3415,-206.7683
1595878852,0.8111,1.0551,0.0939,-41.7683,-21.8293,-211.4634
1595878852,0.8679,1.1708,0.1265,-40.7317,-17.1341,-215.4878
1595878852,0.9150,1.2859,0.1741,-39.6951,-7.7439,-218.5366
1595878852,0.9589,1.3918,0.2490,-40.3049,5.4878,-218.7195
1595878852,1.0262,1.4833,0.3307,-42.6829,23.1707,-215.8537
1595878852,1.0705,1.5436,0.4064,-46.4024,47.1951,-210.3659
1595878852,1.0519,1.5359,0.4246,-49.5732,76.0366,-201.4634
1595878852,0.9608,1.4445,0.3588,-51.4634,105.9146,-188.3537
1595878852,0.7965,1.3548,0.2964,-47.1341,130.0000,-170.6707
1595878852,0.6399,1.3203,0.2584,-34.1463,139.7561,-150.3659
1595878852,0.5091,1.2920,0.2418,-22.3780,136.7683,-129.6951
1595878852,0.3555,1.2429,0.2622,-15.0000,125.4878,-107.5000
1595878852,0.2122,1.1673,0.2904,-11.0976,110.3049,-84.7561
1595878852,0.0739,1.0750,0.3195,-10.0610,93.3537,-63.5366
1595878852,-0.0327,1.0034,0.3666,-8.2317,71.2195,-42.9268
1595878852,-0.0602,0.9781,0.4049,-4.8171,42.8659,-22.5610
1595878852,-0.0196,0.9760,0.4178,-2.8049,9.2683,-3.7805
1595878852,0.0493,0.9578,0.3965,-1.8902,-25.4878,12.0732
1595878852,0.1381,0.9441,0.3723,-1.2805,-52.3171,24.3293
1595878852,0.2354,0.9536,0.3477,0.5488,-68.4756,32.8659
1595878852,0.3096,0.9666,0.3093,2.9878,-77.9268,36.8902
1595878852,0.3589,0.9796,0.2766,4.6951,-82.9268,37.0732
1595878852,0.3990,0.9874,0.2639,4.2683,-83.8415,35.4268
1595878852,0.4153,0.9863,0.2648,1.5244,-79.3902,31.3415
1595878852,0.4202,0.9684,0.2697,-1.7073,-68.6585,25.6098
1595878852,0.4098,0.9625,0.2794,-4.0854,-52.8659,19.7561
1595878852,0.3765,0.9709,0.2965,-5.8537,-34.6951,15.1220
1595878852,0.3219,0.9776,0.3398,-7.5610,-16.4634,11.0366
1595878852,0.2847,0.9632,0.3527,-10.0000,-1.0366,6.8293
1595878852,0.2642,0.9482,0.3395,-13.2317,10.8537,4.0244
1595878852,0.2300,0.9388,0.3174,-15.4878,18.9024,2.9878
1595878852,0.1932,0.9459,0.2901,-14.8780,23.7195,1.8902
1595878852,0.1713,0.9675,0.2708,-14.1463,24.5122,0.5488
1595878852,0.1693,0.9844,0.2612,-14.4512,21.5244,-0.4878
1595878852,0.1763,0.9920,0.2587,-14.6341,16.2805,-1.4634
1595878852,0.1868,0.9907,0.2620,-14.2073,10.3659,-2.5610
1595878852,0.1973,0.9843,0.2692,-13.4756,4.9390,-3.1707
1595878852,0.2086,0.9825,0.2781,-12.6220,0.4878,-3.5976
1595878852,0.2050,0.9855,0.2842,-11.7073,-2.6220,-3.9634
1595878852,0.2020,0.9974,0.2884,-10.5488,-4.6951,-3.9634
1595878852,0.2062,1.0129,0.2917,-9.6951,-5.6707,-3.9024
1595878852,0.2032,1.0196,0.2925,-9.5732,-5.8537,-3.2927
1595878852,0.1956,1.0157,0.2960,-9.5732,-5.0610,-2.8049
1595878852,0.1860,1.0110,0.2948,-9.8780,-3.5366,-2.5610
1595878852,0.1705,1.0094,0.2919,-10.3659,-2.2561,-2.3780
1595878852,0.1619,1.0051,0.2856,-10.9756,-2.0732,-2.1341
1595878852,0.1587,0.9940,0.2780,-11.7073,-2.8049,-2.0122
1595878852,0.1561,0.9831,0.2722,-12.3780,-4.2683,-2.0732
1595878852,0.1553,0.9775,0.2625,-12.9878,-5.9146,-1.7073
1595878852,0.1470,0.9709,0.2551,-13.4146,-7.4390,-1.2805
1595878852,0.1340,0.9688,0.2514,-13.4146,-8.9634,-1.4024
1595878852,0.1326,0.9704,0.2419,-13.7805,-10.5488,-2.0122
1595878852,0.1320,0.9672,0.2366,-14.3293,-12.0122,-2.6220
1595878852,0.1214,0.9615,0.2359,-14.3902,-13.3537,-3.0488
1595878852,0.1093,0.9576,0.2325,-14.1463,-14.6951,-3.6585
1595878852,0.1002,0.9590,0.2314,-13.9634,-15.9146,-4.7561
1595878852,0.0822,0.9638,0.2319,-14.3902,-17.4390,-6.4024
1595878852,0.0702,0.9669,0.2379,-14.6341,-19.1463,-8.4756
1595878852,0.0812,0.9747,0.2474,-15.1829,-21.0976,-11.3415
1595878852,0.0953,0.9913,0.2534,-16.2195,-23.7805,-14.0244
1595878852,0.0892,1.0051,0.2450,-17.1341,-26.5244,-16.1585
1595878852,0.0800,1.0112,0.2363,-17.2561,-29.5732,-18.0488
1595878852,0.0790,1.0118,0.2292,-17.3171,-33.5976,-20.3049
1595878852,0.0774,1.0131,0.2236,-17.8049,-38.4756,-22.3780
1595878852,0.0723,1.0084,0.2231,-18.5366,-43.4146,-23.7805
1595878852,0.0731,1.0007,0.2353,-18.8415,-47.6829,-25.4878
1595878852,0.0742,0.9951,0.2477,-18.9634,-51.2195,-27.0732
1595878852,0.0694,0.9908,0.2620,-18.7805,-53.6585,-28.0488
1595878853,0.0615,0.9923,0.2734,-18.0488,-55.4268,-28.6585
1595878853,0.0599,0.9893,0.2754,-17.6220,-57.0122,-28.9024
1595878853,0.0582,0.9767,0.2739,-17.4390,-59.2073,-29.0244
1595878853,0.0681,0.9661,0.2812,-16.8293,-62.1951,-28.9634
1595878853,0.0854,0.9623,0.3069,-16.1585,-64.9390,-29.0854
1595878853,0.0994,0.9498,0.3307,-16.0366,-66.3415,-29.8780
1595878853,0.1082,0.9251,0.3404,-16.5854,-65.6707,-30.9146
1595878853,0.1169,0.9156,0.3461,-15.9756,-64.6341,-31.7073
1595878853,0.1299,0.9083,0.3423,-14.6341,-63.5976,-32.4390
1595878853,0.1470,0.9011,0.3414,-13.3537,-62.6220,-33.3537
1595878853,0.1661,0.8951,0.3440,-12.5000,-61.8293,-34.2683
1595878853,0.1755,0.8875,0.3419,-12.1341,-60.3659,-35.1829
1595878853,0.1870,0.8774,0.3516,-11.4634,-57.9878,-36.4024
1595878853,0.2063,0.8724,0.3531,-10.6098,-55.2439,-37.9878
1595878853,0.2155,0.8732,0.3513,-9.6341,-52.1341,-39.2683
1595878853,0.2100,0.8679,0.3500,-8.2317,-49.0854,-40.2439
1595878853,0.2111,0.8677,0.3543,-6.8902,-46.7073,-41.7683
1595878853,0.2269,0.8735,0.3659,-6.5854,-45.4878,-43.5976
1595878853,0.2400,0.8716,0.3724,-7.5610,-44.8780,-45.0610
1595878853,0.2465,0.8676,0.3778,-8.1098,-44.3293,-46.3415
1595878853,0.2389,0.8646,0.3742,-7.6829,-43.4756,-47.3171
1595878853,0.2381,0.8651,0.3679,-6.5854,-43.5366,-48.5976
1595878853,0.2469,0.8693,0.3658,-5.6707,-46.2805,-50.0000
1595878853,0.2579,0.8649,0.3589,-5.0610,-50.8537,-50.9756
1595878853,0.2812,0.8633,0.3578,-4.3293,-55.6098,-51.6463
1595878853,0.3026,0.8645,0.3663,-3.2317,-59.6951,-52.2561
1595878853,0.3246,0.8698,0.3757,-2.3171,-62.8659,-52.3171
1595878853,0.3350,0.8694,0.3817,-1.5244,-63.9634,-51.8902
1595878853,0.3331,0.8648,0.3862,-0.2439,-63.8415,-51.0976
1595878853,0.3320,0.8615,0.3842,1.2195,-63.4146,-49.9390
1595878853,0.3342,0.8624,0.3804,2.6829,-63.1707,-48.3537
1595878853,0.3386,0.8680,0.3770,3.9634,-63.2927,-46.6463
1595878853,0.3474,0.8704,0.3782,5.3049,-63.1707,-44.7561
1595878853,0.3654,0.8671,0.3869,6.8902,-60.7927,-40.8537
1595878853,0.3674,0.8513,0.3902,9.4512,-55.4268,-36.2195
1595878853,0.3580,0.8316,0.4050,12.8049,-45.7317,-28.2317
1595878853,0.3333,0.8352,0.4127,14.6341,-38.1098,-22.0122
1595878853,0.3181,0.8425,0.4096,15.0000,-34.5122,-19.1463
1595878853,0.2983,0.8584,0.4141,15.7927,-30.0000,-13.9024
1595878853,0.2916,0.8638,0.4161,15.4878,-29.0854,-11.8293
1595878853,0.2786,0.8685,0.4126,14.8171,-28.7805,-9.7561
1595878853,0.2612,0.8727,0.4045,14.4512,-29.1463,-7.8659
1595878853,0.2474,0.8802,0.4014,14.4512,-30.2439,-6.2805
1595878853,0.2228,0.9039,0.3874,13.7195,-35.4268,-2.9878
1595878853,0.2141,0.9141,0.3910,13.1707,-43.3537,0.4268
1595878853,0.2283,1.0281,0.4277,9.8780,-50.1829,5.6098
1595878853,0.2280,1.0570,0.4349,9.4512,-48.7805,6.4634
1595878853,0.2219,1.0741,0.4382,9.3902,-46.6463,7.5000
1595878853,0.2103,1.0792,0.4365,9.0854,-44.5732,8.3537
1595878853,0.1776,1.0413,0.4037,8.0488,-43.2317,10.0610
1595878853,0.1832,1.0439,0.3578,4.6951,-46.7073,10.7927
1595878853,0.1981,1.1160,0.3538,0.2439,-42.6829,9.2073
1595878853,0.2026,1.1191,0.3546,-0.9146,-40.2439,8.2927
1595878854,0.2128,1.0407,0.3262,-2.9268,-37.0122,7.6220
1595878854,0.2209,1.0154,0.3143,-4.2073,-36.4634,7.6829
1595878854,0.2278,1.0028,0.3058,-5.6098,-34.8780,7.9878
1595878854,0.2359,1.0286,0.2979,-8.8415,-27.3780,10.7927
1595878854,0.2383,1.0500,0.2994,-10.1220,-25.1829,12.2561
1595878854,0.2427,1.0736,0.2886,-13.0488,-21.5244,15.8537
1595878854,0.2495,1.0783,0.2806,-14.2073,-20.3049,17.9268
1595878854,0.2919,1.0519,0.2345,-17.9268,-17.9268,25.1829
1595878854,0.2944,0.9797,0.2191,-19.2683,-15.8537,29.6341
1595878854,0.2889,0.9653,0.2111,-19.2073,-15.2439,30.6098
1595878854,0.2923,0.9258,0.1885,-18.7805,-16.8902,31.1585
1595878854,0.3175,0.8511,0.1653,-15.7317,-25.7927,29.7561
1595878854,0.3513,0.8334,0.1754,-12.3780,-31.8902,26.5244
1595878854,0.3644,0.8464,0.1833,-11.3415,-32.6829,24.2073
1595878854,0.3956,0.8361,0.1709,-8.4146,-27.8049,17.3171
1595878854,0.4172,0.8435,0.1788,-6.7683,-20.0000,13.9024
1595878854,0.3907,0.8880,0.1953,-4.7561,-6.3415,9.9390
1595878854,0.3735,0.8973,0.1984,-3.3537,-2.1951,7.9268
1595878854,0.3749,0.8792,0.2066,-2.3780,-1.2195,5.9756
1595878854,0.3792,0.8846,0.2176,-1.6463,-0.4878,5.1220
1595878854,0.3746,0.9006,0.2298,-1.2195,1.2195,3.9024
1595878854,0.3668,0.9150,0.2374,-0.4268,3.5366,2.8049
1595878854,0.3823,0.9237,0.2782,4.5122,7.0732,-5.7927
1595878854,0.3725,0.9781,0.3384,4.9390,19.8171,-13.7195
1595878854,0.3540,0.9840,0.3687,2.9878,26.5854,-17.0732
1595878854,0.3372,0.9506,0.3799,0.9146,28.7195,-18.9024
1595878854,0.3177,0.9235,0.4110,-2.9268,26.6463,-19.4512
1595878854,0.2983,0.9696,0.4166,-4.8171,26.7073,-19.7561
1595878854,0.2687,1.1151,0.4265,-8.7805,26.1585,-25.0000
1595878854,0.2350,1.1346,0.4089,-11.8902,19.0244,-32.4390
1595878854,0.2328,1.1012,0.3862,-11.4634,2.0732,-36.5854
1595878854,0.2474,1.0824,0.3976,-14.2073,-17.0122,-42.8659
1595878854,0.2969,1.0756,0.4334,-17.8049,-29.7561,-47.9878
1595878854,0.3177,1.0072,0.4672,-17.0122,-33.2927,-46.5244
1595878854,0.3072,0.9603,0.4739,-15.0610,-32.4390,-42.3780
1595878854,0.2908,0.9156,0.4724,-13.7195,-30.9146,-36.8902
1595878854,0.2812,0.8807,0.4681,-13.4146,-28.7805,-30.9146
1595878854,0.2764,0.8583,0.4554,-13.5366,-25.8537,-24.6341
1595878854,0.2308,0.8588,0.4029,-13.7195,-8.0488,-5.4268
1595878854,0.1440,0.8652,0.3297,-12.3171,-1.8902,8.6585
1595878854,0.1425,0.8609,0.3119,-13.5366,-7.6829,11.7683
1595878854,0.1446,0.8517,0.3055,-15.1220,-14.4512,13.2927
1595878854,0.1642,0.8505,0.2961,-16.4634,-26.7073,11.7073
1595878854,0.1786,0.8567,0.2987,-16.4634,-31.4024,10.0000
1595878854,0.2365,0.8367,0.3072,-15.9756,-38.7195,4.2683
1595878854,0.2506,0.8101,0.3102,-13.3537,-33.6585,2.4390
1595878854,0.2753,0.8241,0.3129,-12.1951,-26.0366,2.8049
1595878854,0.2742,0.8330,0.3177,-11.2195,-20.2439,3.4756
1595878854,0.2591,0.8436,0.3187,-9.6341,-13.5366,4.0854
1595878854,0.2371,0.8494,0.3258,-7.5610,-7.0732,4.3293
1595878854,0.2156,0.8581,0.3278,-5.4878,-2.7439,4.6341
1595878854,0.2115,0.8630,0.3264,-3.9024,-1.4634,5.0610
1595878854,0.2109,0.8615,0.3285,-3.0488,-2.0122,5.2439
1595878854,0.2109,0.8577,0.3338,-1.5854,-4.2683,4.9390
1595878854,0.2087,0.8498,0.3418,0.1220,-6.9512,4.2073
1595878854,0.2147,0.8414,0.3485,1.1585,-8.9024,3.4146
1595878854,0.2305,0.8178,0.3683,3.5366,-11.7073,1.8293
1595878854,0.2324,0.8004,0.3765,4.6951,-11.8293,1.4634
1595878854,0.2363,0.7919,0.3848,5.9756,-11.0366,0.9756
1595878854,0.2374,0.7867,0.3918,7.4390,-9.5732,0.4268
1595878854,0.2371,0.7817,0.3992,8.6585,-7.8049,0.1220
1595878855,0.2450,0.7844,0.4060,10.1829,-5.7317,-0.3049
1595878855,0.2584,0.7936,0.4146,11.6463,-3.5976,-0.9756
1595878855,0.2659,0.8079,0.4261,12.8049,-0.7317,-1.5854
1595878855,0.2739,0.8204,0.4374,13.8415,2.9878,-2.0732
1595878855,0.2752,0.8284,0.4527,14.7561,7.1341,-2.5610
1595878855,0.2722,0.8392,0.4634,15.5488,10.5488,-3.1707
1595878855,0.2673,0.8486,0.4660,15.9146,12.6829,-3.4756
1595878855,0.2701,0.8618,0.4733,15.4268,13.4756,-3.4756
1595878855,0.2751,0.8685,0.4750,14.8171,12.3171,-3.1098
1595878855,0.2700,0.8719,0.4735,13.5976,10.2439,-2.3171
1595878855,0.2649,0.8764,0.4672,12.3171,7.8049,-1.4024
1595878855,0.2636,0.8829,0.4581,10.4878,4.9390,-0.8537
1595878855,0.2733,0.8560,0.4413,3.5976,-9.8780,5.7317
1595878855,0.2818,0.8170,0.4287,1.0366,-15.4878,10.8537
1595878855,0.2847,0.8008,0.4207,-0.1829,-18.2317,13.5976
1595878855,0.2876,0.7941,0.4078,-1.0366,-21.4024,16.4634
1595878855,0.2958,0.7924,0.3881,-1.7683,-25.3049,19.3902
1595878855,0.3022,0.7956,0.3677,-2.2561,-29.9390,21.7683
1595878855,0.3383,0.8379,0.3608,-2.0732,-40.0610,24.9390
1595878855,0.4557,1.0042,0.3898,-0.1220,-46.2195,19.3902
1595878855,0.4835,1.0462,0.3935,1.0976,-46.4024,16.8902
1595878855,0.5934,1.1558,0.3420,4.5122,-42.1341,11.2805
1595878855,0.5538,1.0768,0.3224,4.3293,-25.6098,20.4878
1595878855,0.5223,1.0323,0.3162,4.2073,-18.5976,26.2805
1595878855,0.4968,0.9936,0.3069,3.9024,-12.5610,32.6829
1595878855,0.4835,0.9717,0.3002,3.8415,-7.7439,39.6951
1595878855,0.4693,0.9843,0.2635,3.4756,2.1951,59.3293
1595878855,0.4622,0.9912,0.2513,3.7195,4.2073,64.1463
1595878855,0.4590,0.9937,0.2421,4.2073,4.6341,67.9878
1595878855,0.4555,1.0021,0.2350,4.6951,0.3659,72.0732
1595878855,0.4649,0.9995,0.2383,4.4512,-3.2927,72.3171
1595878855,0.4723,0.9870,0.2331,3.4146,-6.7683,71.9512
1595878855,0.4713,0.9634,0.2054,2.0732,-11.4634,70.1220
1595878855,0.5020,0.8953,0.1860,1.7073,-20.6098,63.2927
1595878855,0.5075,0.8452,0.1839,1.0976,-19.7561,60.3049
1595878855,0.5168,0.8353,0.1815,0.6098,-17.3171,60.2439
1595878855,0.5312,0.8429,0.1571,2.0732,-6.9512,60.1220
1595878855,0.5308,0.8366,0.1451,1.2805,-4.0244,59.3293
1595878855,0.5305,0.8260,0.1451,0.9756,-0.8537,56.7073
1595878855,0.5316,0.8328,0.1498,2.0122,0.5488,54.2073
1595878855,0.5297,0.8231,0.1583,2.8049,-0.9146,49.8171
1595878855,0.5378,0.8228,0.1756,2.0732,-0.9756,46.4634
1595878855,0.5571,0.8198,0.1927,0.3659,1.8902,40.3659
1595878855,0.5621,0.8207,0.1949,-1.0366,3.9024,37.2561
1595878855,0.5492,0.8177,0.1933,-3.7195,7.3780,32.0122
1595878855,0.5659,0.8350,0.2004,-4.8780,9.5732,26.5244
1595878855,0.5957,0.8414,0.2312,-6.3415,7.6220,21.4024
1595878855,0.5980,0.8326,0.2354,-8.2927,6.1585,19.3902
1595878855,0.5777,0.8206,0.2278,-10.5488,4.8171,17.9878
1595878855,0.5656,0.8066,0.2153,-12.9268,4.1463,16.5244
1595878855,0.6458,0.7795,0.2284,-14.5122,-7.0122,7.1341
1595878855,0.6452,0.7699,0.2581,-15.0000,-7.9878,5.7317
1595878855,0.6569,0.7641,0.2773,-16.4024,-7.6829,4.4512
1595878855,0.6596,0.7537,0.2988,-17.6220,-5.1220,2.7439
1595878855,0.6492,0.7115,0.2982,-19.4512,1.7683,0.9146
1595878855,0.6613,0.7018,0.2782,-20.2439,2.3780,0.8537
1595878855,0.6492,0.6813,0.2399,-20.5488,0.3659,0.1829
1595878855,0.6425,0.6622,0.2295,-20.3659,-1.9512,-0.9756
1595878855,0.6546,0.6505,0.2332,-19.7561,-6.0976,-2.4390
1595878855,0.6749,0.6436,0.2488,-19.5732,-10.7927,-4.5122
1595878855,0.6899,0.6493,0.2758,-19.1463,-12.4390,-9.5122
1595878855,0.6912,0.6555,0.2729,-18.8415,-10.5488,-12.0122
1595878855,0.6874,0.6552,0.2690,-18.8415,-7.6829,-15.5488
1595878855,0.6799,0.6522,0.2701,-18.2317,-4.8780,-18.8415
1595878855,0.6833,0.6435,0.2822,-16.8293,-2.7439,-21.6463
1595878855,0.6862,0.6257,0.3029,-15.6707,-0.2439,-24.5122
1595878856,0.7032,0.6055,0.3315,-11.5854,7.4390,-28.2927
1595878856,0.6571,0.6138,0.3078,-8.6585,14.0854,-29.0854
1595878856,0.6063,0.6520,0.2963,-10.0000,24.5732,-32.0122
1595878856,0.5608,0.6973,0.3387,-10.3049,32.5610,-38.2317
1595878856,0.5467,0.7026,0.3491,-10.0000,35.0000,-41.5244
1595878856,0.5295,0.7126,0.3478,-9.1463,35.1220,-43.7805
1595878856,0.5089,0.7113,0.3544,-8.7805,30.1829,-47.1951
1595878856,0.5081,0.7119,0.3518,-8.5976,28.6585,-48.2927
1595878856,0.5255,0.7380,0.3648,-6.4634,25.9146,-49.2073
1595878856,0.5582,0.7834,0.3925,-3.9634,20.1220,-50.3659
1595878856,0.5493,0.8116,0.4094,-3.8415,14.4512,-50.6707
1595878856,0.4139,0.8541,0.3887,-6.3415,4.8171,-52.2561
1595878856,0.4236,0.8478,0.3628,-7.5000,-2.0122,-52.3171
1595878856,0.4475,0.8362,0.3515,-7.7439,-7.5000,-52.7439
1595878856,0.4725,0.8278,0.3523,-6.7073,-10.1829,-52.9878
1595878856,0.4747,0.8292,0.3619,-5.1829,-10.1829,-53.2317
1595878856,0.4656,0.8352,0.3810,-3.4756,-8.4146,-53.4756
1595878856,0.4487,0.8469,0.3939,-2.9878,-5.7317,-53.4146
1595878856,0.4316,0.8671,0.3958,-2.9268,-3.5976,-53.4146
1595878856,0.4008,0.8842,0.3794,-2.1951,-2.8049,-52.5000
1595878856,0.3824,0.8923,0.3640,-0.5488,-7.5610,-49.4512
1595878856,0.4066,0.8914,0.3791,0.7317,-10.4268,-48.5976
1595878856,0.4059,0.8827,0.3802,1.8902,-13.4146,-47.3781
1595878856,0.3874,0.8842,0.3694,4.3902,-18.7805,-44.7561
1595878856,0.3972,0.8989,0.3543,5.1220,-27.0732,-41.6463
1595878856,0.3904,0.8949,0.3484,5.5488,-31.4634,-40.3049
1595878856,0.4044,0.9003,0.3509,6.2195,-36.5854,-38.5976
1595878856,0.4204,0.9124,0.3760,5.9756,-43.1707,-36.1585
1595878856,0.4287,0.8920,0.3860,2.8659,-46.0976,-33.3537
1595878856,0.4337,0.8691,0.3826,0.1220,-44.2073,-31.6463
1595878856,0.4217,0.9062,0.4135,0.3659,-42.1951,-29.1463
1595878856,0.4110,0.9501,0.4564,0.0610,-41.3415,-25.7927
1595878856,0.5630,0.9497,0.4296,-4.7561,-35.8537,-23.3537
1595878856,0.4280,0.8621,0.4318,-5.3659,-23.9634,-7.9878
1595878856,0.3768,0.8414,0.4229,-7.8049,-19.9390,-11.7073
1595878856,0.4138,0.8732,0.4355,-9.2683,-17.6829,-16.2805
1595878856,0.4503,0.9139,0.4262,-8.5976,-16.8293,-15.0000
1595878856,0.4626,0.9360,0.4132,-7.8659,-13.7195,-13.7195
1595878856,0.4592,0.9368,0.4008,-8.1098,-7.8049,-13.8415
1595878856,0.4448,0.9334,0.4000,-7.3171,-3.1098,-13.9634
1595878856,0.4825,0.9403,0.4382,-6.5854,-1.7683,-14.2073
1595878856,0.4928,0.9180,0.4753,-7.5000,-2.5610,-14.6951
1595878856,0.3328,0.8740,0.4496,-8.6585,2.1341,-14.8171
1595878856,0.1760,0.9123,0.3890,-1.4024,8.1098,-15.8537
1595878856,0.2090,0.9894,0.3328,10.9756,3.5976,-17.5610
1595878856,0.2809,0.9796,0.2464,10.5488,-4.5732,-16.8902
1595878856,0.4006,0.9854,0.1807,5.8537,-10.1829,-15.4268
1595878856,0.5414,1.0005,0.1359,8.5366,-14.6951,-13.6585
1595878856,0.6656,1.0486,0.0906,13.0488,-18.9024,-7.6220
1595878856,0.7695,1.0993,0.1246,14.0854,-21.9512,4.4512
1595878856,0.7526,1.1058,0.1704,10.0610,-26.3415,17.6220
1595878856,0.7180,1.1110,0.2346,7.4390,-25.4878,28.5366
1595878856,0.7569,1.1080,0.3482,5.6707,-13.4146,37.4390
1595878856,0.6849,1.0714,0.4364,-1.1585,10.1829,46.5854
1595878856,0.4424,0.9962,0.4789,-5.9756,39.6951,52.7439
1595878856,0.2161,0.9456,0.4887,-3.6585,67.8049,51.5854
1595878856,0.1230,0.9470,0.4805,2.3171,74.3902,49.3293
1595878856,0.0578,0.9622,0.4500,4.5122,51.0976,50.6098
1595878856,0.0062,0.9406,0.3669,6.4024,15.7927,49.0854
1595878856,0.0159,0.9149,0.3113,10.9146,-14.7561,43.2317
1595878856,0.0983,0.9185,0.3074,15.5488,-35.7927,39.3293
1595878856,0.1788,0.9196,0.3224,16.2805,-48.5366,36.5854
1595878856,0.2593,0.9172,0.3223,14.9390,-56.6463,33.6585
1595878856,0.3430,0.9156,0.3278,13.5976,-60.7927,31.6463
1595878856,0.4200,0.9008,0.3248,11.3415,-60.9756,31.0366
1595878856,0.4536,0.8888,0.3036,8.7805,-56.1585,32.0122
1595878856,0.4553,0.8879,0.2850,7.8659,-46.6463,33.9634
1595878856,0.4608,0.8842,0.2809,9.0244,-36.4634,35.5488
1595878856,0.4587,0.8700,0.2697,10.3659,-27.9268,37.3780
1595878856,0.4576,0.8538,0.2739,12.5000,-20.7317,39.0854
1595878856,0.4515,0.8452,0.3021,15.6707,-13.8415,40.1829
1595878856,0.4332,0.8314,0.3397,17.5610,-7.9878,40.9756
1595878856,0.4554,0.8138,0.3629,18.4756,-4.1463,41.2195
1595878856,0.5004,0.8083,0.3612,18.9634,-0.7317,41.2195
1595878856,0.5265,0.8150,0.3442,19.6341,3.5366,42.1341
1595878856,0.5675,0.8203,0.3273,20.6707,6.4634,42.3780
1595878856,0.6052,0.8416,0.3345,20.6098,10.4878,40.7927
1595878856,0.6022,0.8264,0.3159,19.8780,15.9146,40.2439
1595878856,0.5473,0.6976,0.3544,22.9268,40.5488,39.1463
1595878856,0.4745,0.6878,0.3610,28.2317,54.4512,38.7805
1595878856,0.5625,0.7032,0.3613,29.5122,46.9512,37.7439
1595878856,0.6181,0.7032,0.3336,30.7317,43.4146,37.6829
1595878856,0.6652,0.7094,0.3038,33.7195,43.1707,37.8659
1595878856,0.7136,0.7366,0.3700,39.5732,44.6341,37.3780
1595878856,0.7401,0.7023,0.3858,37.3171,54.9390,37.6829
1595878856,0.7203,0.6875,0.3849,37.8659,62.1341,40.6098
1595878856,0.7131,0.6567,0.3751,37.5610,66.5244,42.9878
1595878856,0.7220,0.6228,0.3566,35.8537,68.4756,44.3902
1595878857,0.7258,0.6133,0.3444,35.1829,72.0732,45.7927
1595878857,0.7315,0.6146,0.3330,36.4024,84.8171,46.9512
1595878857,0.7379,0.6042,0.3264,37.3780,91.1585,47.8049
1595878857,0.7442,0.6087,0.3119,39.3902,96.2195,49.2683
1595878857,0.7252,0.6132,0.3022,42.7439,99.4512,51.6463
1595878857,0.6984,0.6039,0.2936,46.6463,99.2073,54.0854
1595878857,0.7241,0.6025,0.2985,54.9390,92.4390,57.3171
1595878857,0.7305,0.5936,0.2972,58.4756,91.7683,59.2683
1595878857,0.7314,0.5888,0.3030,62.4390,93.8415,60.9756
1595878857,0.7493,0.5889,0.3154,66.1585,96.3415,61.7683
1595878857,0.7698,0.5936,0.3186,68.7805,98.9024,62.3171
1595878857,0.7808,0.6104,0.3243,71.2195,102.9268,62.4390
1595878857,0.7950,0.6379,0.3359,74.3902,107.9268,61.7683
1595878857,0.8143,0.6602,0.3447,77.0122,111.5244,61.2805
1595878857,0.8384,0.6818,0.3562,78.5366,112.8049,61.2195
1595878857,0.8540,0.7021,0.3738,79.6951,112.8659,61.5854
1595878857,0.8616,0.7115,0.3852,80.3659,112.2561,61.7683
1595878857,0.8498,0.7158,0.3768,80.1220,111.4634,61.1585
1595878857,0.8345,0.7151,0.3690,79.6341,110.5488,60.3659
1595878857,0.8265,0.7090,0.3593,79.0854,109.1463,60.3049
1595878857,0.8011,0.6844,0.3510,77.8049,107.3781,60.8537
1595878857,0.7654,0.6385,0.3436,76.0366,106.0366,61.7073
1595878857,0.7261,0.5679,0.3237,73.5976,107.0732,63.7805
1595878857,0.6753,0.4982,0.3093,72.0732,113.0488,66.2195
1595878857,0.7202,0.4935,0.2928,72.3171,108.7805,68.3537
1595878857,0.7638,0.5243,0.2872,75.3049,109.6341,68.5366
1595878857,0.8111,0.5731,0.3108,78.8415,108.7805,64.8781
1595878857,0.8346,0.5809,0.3143,78.7195,108.9024,63.9024
1595878857,0.8517,0.5896,0.3139,78.5366,113.5976,63.2317
1595878857,0.7756,0.6089,0.3033,79.8781,140.2439,64.2683
1595878857,0.7579,0.6371,0.3079,83.2317,130.6098,64.9390
1595878857,0.7715,0.6465,0.3196,83.9634,118.0488,64.0854
1595878857,0.8058,0.6586,0.3271,83.2317,102.8049,62.7439
1595878857,0.7953,0.6605,0.3300,84.1463,101.7683,63.0488
1595878857,0.7959,0.6599,0.3320,85.0610,102.5610,62.4390
1595878857,0.7963,0.6694,0.3368,85.6707,103.2927,61.8293
1595878857,0.7905,0.6779,0.3442,86.1585,104.1463,61.4024
1595878857,0.7915,0.6847,0.3522,86.2805,104.6951,60.4878
1595878857,0.7939,0.7067,0.3578,86.5854,103.7195,59.8781
1595878857,0.8001,0.7202,0.3694,87.5000,101.4024,60.4268
1595878857,0.8113,0.7208,0.3765,87.9268,98.8415,60.8537
1595878857,0.6960,0.6785,0.3546,85.9146,101.9512,66.5854
1595878857,0.6790,0.6658,0.3419,85.7927,102.2561,67.0122
1595878857,0.6962,0.6722,0.3511,87.0122,97.9878,66.8902
1595878857,0.7029,0.6644,0.3519,86.5244,96.2195,66.1585
1595878857,0.7022,0.6674,0.3500,86.8293,95.7927,65.7927
1595878857,0.7021,0.6711,0.3458,87.7439,94.6951,66.0366
1595878857,0.7149,0.6654,0.3454,87.8659,92.0732,65.6707
1595878857,0.7321,0.6566,0.3398,86.8902,87.4390,63.4146
1595878857,0.7456,0.6595,0.3437,86.2805,88.9024,62.1341
1595878857,0.7526,0.6597,0.3337,85.7317,90.6098,61.2805
1595878857,0.7485,0.6595,0.3322,85.3659,91.5854,60.5488
1595878857,0.7485,0.6562,0.3355,84.6951,91.7683,59.1463
1595878857,0.7567,0.6566,0.3323,83.7195,91.8902,56.8293
1595878857,0.7573,0.6632,0.3315,82.6220,91.8293,55.3049
1595878857,0.7422,0.6637,0.3298,77.0732,91.2805,51.5854
1595878857,0.7361,0.6618,0.3215,74.6341,90.7317,51.3415
1595878857,0.7101,0.6550,0.3134,71.7683,90.4878,49.8781
1595878857,0.6943,0.6628,0.2990,69.8781,90.9756,47.9268
1595878857,0.7004,0.6694,0.2828,67.5610,90.7317,46.3415
1595878857,0.7045,0.6746,0.2746,64.8781,88.4146,44.9390
1595878857,0.6975,0.6835,0.2650,62.7439,86.2195,42.7439
1595878857,0.6561,0.7000,0.2532,59.3902,83.2317,37.1341
1595878857,0.6382,0.7102,0.2565,58.2927,78.4146,34.9390
1595878857,0.6360,0.7213,0.2550,56.0366,72.3781,32.0732
1595878857,0.6230,0.7355,0.2493,53.1707,67.0732,29.8780
1595878857,0.6013,0.7468,0.2498,51.9512,63.2927,28.2927
1595878857,0.5837,0.7369,0.2699,50.6707,60.4268,26.5244
1595878857,0.5683,0.7369,0.2970,48.4756,58.2317,24.3293
1595878857,0.5444,0.7421,0.3427,44.3293,53.7195,18.5976
1595878857,0.5468,0.7498,0.3549,42.3171,52.0122,14.5122
1595878857,0.5720,0.7944,0.3652,41.2805,48.9024,9.5732
1595878857,0.6223,0.8425,0.3831,40.7927,43.4146,3.8415
1595878857,0.6469,0.8796,0.3981,41.4024,35.9756,-2.0732
1595878857,0.6154,0.9156,0.4218,43.4756,26.1585,-6.3415
1595878857,0.5905,0.9292,0.4446,44.6951,16.2805,-9.3902
1595878857,0.5916,0.9037,0.4542,41.5244,9.5122,-10.8537
1595878857,0.5819,0.8847,0.4728,38.6585,5.3659,-8.2317
1595878857,0.5376,0.8632,0.4953,38.2927,2.4390,-4.2683
1595878857,0.4819,0.8361,0.5025,37.2561,-0.6707,-2.5610
1595878857,0.4546,0.8319,0.4899,36.7073,-5.3659,-1.5854
1595878857,0.4424,0.8309,0.4837,37.5000,-9.8780,0.1829
1595878857,0.4250,0.8272,0.4858,38.1707,-13.8415,1.8902
1595878857,0.4158,0.8075,0.4717,38.2317,-15.0000,3.1098
1595878857,0.4156,0.8116,0.4561,38.9024,-14.2073,5.0000
1595878857,0.4187,0.8186,0.4468,41.4024,-14.5122,8.2927
1595878857,0.4277,0.8113,0.4432,43.3537,-17.0122,9.8780
1595878858,0.4451,0.8019,0.4322,44.8171,-21.9512,10.7317
1595878858,0.4543,0.7897,0.4272,46.4024,-27.1951,13.2317
1595878858,0.4667,0.7815,0.4277,49.0854,-32.0122,15.8537
1595878858,0.4718,0.7679,0.4245,51.0366,-35.7317,17.6220
1595878858,0.4609,0.7484,0.4230,52.0732,-37.7439,19.0244
1595878858,0.4526,0.7443,0.4224,52.9878,-39.0854,19.8780
1595878858,0.4493,0.7421,0.4313,53.7805,-41.0976,20.1829
1595878858,0.4526,0.7286,0.4249,52.8049,-43.1707,19.6341
1595878858,0.4658,0.7311,0.4105,51.7683,-44.9390,18.7195
1595878858,0.4841,0.7355,0.4005,51.0366,-46.7073,18.5976
1595878858,0.5109,0.7365,0.3826,48.9024,-48.8415,18.0488
1595878858,0.5291,0.7529,0.3693,46.9512,-50.6098,17.2561
1595878858,0.5395,0.7743,0.3626,46.3415,-50.7927,17.3171
1595878858,0.5601,0.7774,0.3470,44.8780,-49.8171,16.3415
1595878858,0.5824,0.7774,0.3233,43.6585,-47.3781,15.1220
1595878858,0.5944,0.7776,0.3189,43.5976,-42.4390,14.7561
1595878858,0.5793,0.7895,0.3102,43.7805,-37.1341,14.3293
1595878858,0.5610,0.8110,0.3050,44.1463,-34.0244,13.7195
1595878858,0.5521,0.8350,0.3121,44.4512,-32.8659,12.0122
1595878858,0.5604,0.8475,0.3132,44.5732,-34.4512,10.1829
1595878858,0.5722,0.8508,0.3181,43.5366,-37.5000,9.9390
1595878858,0.5846,0.8556,0.3148,42.2561,-40.0000,9.6951
1595878858,0.5950,0.8627,0.2988,40.9756,-41.2195,9.0854
1595878858,0.6104,0.8603,0.2820,40.1220,-40.7927,8.8415
1595878858,0.6177,0.8317,0.2567,38.7195,-38.9024,8.9024
1595878858,0.6074,0.8054,0.2328,37.6220,-36.4634,9.4512
1595878858,0.5706,0.7927,0.2312,37.1341,-33.4146,9.8171
1595878858,0.5353,0.7824,0.2292,36.0976,-31.1585,9.0244
1595878858,0.5573,0.7680,0.2361,34.6341,-30.2439,8.1098
1595878858,0.5800,0.7500,0.2292,32.8049,-29.4512,8.2317
1595878858,0.5576,0.7270,0.2031,30.6707,-27.6829,8.9634
1595878858,0.5345,0.7238,0.1887,29.0244,-25.9756,8.8415
1595878858,0.5486,0.7335,0.1777,26.9512,-26.1585,8.1707
1595878858,0.5757,0.7429,0.1650,24.4512,-27.8659,8.1707
1595878858,0.5994,0.7437,0.1450,21.5854,-28.1707,8.2317
1595878858,0.6173,0.7418,0.1263,18.9024,-27.1951,8.2317
1595878858,0.6227,0.7491,0.1125,16.3415,-26.8293,8.5366
1595878858,0.6331,0.7497,0.1039,14.0244,-27.9878,9.3293
1595878858,0.6414,0.7404,0.0845,11.5244,-29.8171,10.0000
1595878858,0.6356,0.7368,0.0705,9.0244,-29.8780,10.4268
1595878858,0.6453,0.7437,0.0645,6.9512,-28.5976,10.5488
1595878858,0.6794,0.7364,0.0580,4.6951,-25.8537,10.6707
1595878858,0.6810,0.7386,0.0648,2.4390,-21.4024,10.9756
1595878858,0.6580,0.7343,0.0596,0.9756,-16.0366,11.7073
1595878858,0.6599,0.7303,0.0560,0.1829,-13.7805,12.0122
1595878858,0.6699,0.7375,0.0735,-0.3049,-17.9878,13.1098
1595878858,0.6694,0.7315,0.0759,-0.8537,-25.4268,14.9390
1595878858,0.6749,0.7250,0.0598,-2.2561,-30.2439,15.5488
1595878858,0.6742,0.7339,0.0547,-2.8659,-32.3780,16.4634
1595878858,0.6776,0.7352,0.0549,-2.5610,-34.2073,17.8049
1595878858,0.6904,0.7282,0.0510,-3.1707,-35.2439,18.1098
1595878858,0.6868,0.7317,0.0579,-3.9024,-35.3659,17.9878
1595878858,0.6904,0.7392,0.0669,-4.3902,-36.0366,18.0488
1595878858,0.7092,0.7438,0.0674,-5.1829,-38.0488,17.8659
1595878858,0.7081,0.7454,0.0595,-6.2195,-40.9756,17.9878
1595878858,0.6957,0.7509,0.0485,-7.3171,-43.7805,18.7195
1595878858,0.7098,0.7601,0.0409,-8.8415,-45.8537,19.0244
1595878858,0.7292,0.7677,0.0269,-10.6707,-45.8537,18.7805
1595878858,0.7402,0.7810,0.0104,-11.8293,-43.0488,18.0488
1595878858,0.7698,0.8104,0.0087,-12.5610,-39.8780,15.7927
1595878858,0.7939,0.8506,0.0136,-14.1463,-37.6220,11.9512
1595878858,0.8121,0.8921,0.0059,-16.4024,-36.3415,7.0122
1595878858,0.8500,0.9329,-0.0031,-18.7195,-35.5488,1.2195
1595878858,0.8959,0.9675,-0.0179,-20.9756,-35.4268,-4.5732
1595878858,0.9185,0.9954,-0.0371,-22.9878,-35.0610,-9.5732
1595878858,0.8917,1.0064,-0.0490,-23.9024,-33.5366,-13.7805
1595878858,0.8351,0.9781,-0.0399,-23.7195,-33.7195,-16.5244
1595878858,0.7900,0.9190,-0.0251,-23.9634,-36.7683,-17.6829
1595878858,0.7280,0.8726,-0.0095,-23.2317,-41.4024,-17.3780
1595878858,0.6568,0.8358,0.0058,-21.0976,-46.3415,-15.6707
1595878858,0.6137,0.8087,0.0261,-18.2927,-51.3415,-14.2073
1595878858,0.6177,0.7960,0.0424,-15.1829,-56.3415,-12.5610
1595878858,0.6422,0.7941,0.0405,-11.2195,-60.2439,-10.6098
1595878858,0.6581,0.8047,0.0343,-7.0122,-61.5244,-8.8415
1595878858,0.6711,0.8216,0.0336,-4.0244,-59.3902,-7.8049
1595878858,0.6849,0.8468,0.0329,-1.5854,-54.3902,-6.9512
1595878858,0.6907,0.8583,0.0347,0.2439,-49.0854,-5.9146
1595878858,0.6925,0.8633,0.0306,1.2805,-44.5732,-5.3049
1595878858,0.6819,0.8825,0.0338,2.2561,-41.7683,-5.0610
1595878858,0.6746,0.8934,0.0204,2.4390,-42.0732,-4.6951
1595878858,0.6631,0.8815,-0.0002,1.7683,-44.7561,-4.4512
1595878858,0.6522,0.8597,-0.0168,0.6707,-49.0854,-4.0244
1595878858,0.6631,0.8565,-0.0390,0.0610,-53.7195,-4.2683
1595878858,0.6898,0.8739,-0.0558,-0.1829,-56.3415,-3.6585
1595878858,0.6964,0.8804,-0.0610,-0.7927,-54.4512,-3.2317
1595878858,0.6771,0.8718,-0.0616,-1.5244,-49.3902,-3.3537
1595878858,0.6494,0.8636,-0.0626,-2.2561,-43.5976,-3.0488
1595878858,0.6324,0.8531,-0.0579,-3.2927,-38.7805,-2.1951
1595878858,0.6090,0.8380,-0.0580,-4.0244,-35.4268,-1.1585
1595878858,0.5742,0.8176,-0.0591,-5.1829,-33.4146,0.3049
1595878858,0.5579,0.8032,-0.0605,-6.2805,-32.9878,1.3415
1595878858,0.5720,0.7972,-0.0613,-7.3780,-34.6341,2.1951
1595878858,0.6022,0.7913,-0.0753,-8.8415,-35.5488,3.2927
1595878858,0.6127,0.7877,-0.1011,-10.5488,-32.5000,3.2317
1595878858,0.6302,0.7876,-0.1079,-11.7073,-28.0488,3.2927
1595878858,0.6638,0.7957,-0.1071,-13.0488,-24.0244,2.8049
1595878858,0.6686,0.8046,-0.1193,-14.9390,-19.8780,2.2561
1595878858,0.6509,0.8074,-0.1472,-17.3780,-14.9390,2.1951
1595878858,0.6512,0.8119,-0.1530,-19.6951,-14.0244,1.5244
1595878858,0.6741,0.8015,-0.1408,-22.1341,-18.9634,1.5854
1595878858,0.6757,0.7927,-0.1360,-25.0610,-24.7561,2.3780
1595878858,0.6666,0.7808,-0.1533,-26.8902,-26.9512,2.9878
1595878858,0.6643,0.7687,-0.1772,-27.9878,-27.1341,3.5366
1595878858,0.6685,0.7589,-0.1823,-28.9024,-28.5976,4.0854
1595878858,0.6790,0.7501,-0.1796,-29.8780,-30.0610,3.7805
1595878858,0.6780,0.7542,-0.1641,-29.8780,-29.4512,2.9268
1595878858,0.6749,0.7656,-0.1464,-29.8780,-25.9756,2.3171
1595878858,0.6669,0.7720,-0.1245,-30.3659,-22.3780,1.7073
1595878859,0.6410,0.7690,-0.1091,-31.0366,-21.0366,1.2805
1595878859,0.6250,0.7643,-0.1202,-31.9512,-23.2317,1.0976
1595878859,0.6499,0.7676,-0.1301,-33.8415,-27.8659,1.1585
1595878859,0.6631,0.7656,-0.1532,-36.2805,-31.5244,1.0366
1595878859,0.6622,0.7544,-0.1823,-38.1098,-33.5366,0.7927
1595878859,0.6918,0.7473,-0.1860,-39.2683,-33.4146,0.2439
1595878859,0.7134,0.7516,-0.1705,-40.2439,-31.9512,0.0000
1595878859,0.6913,0.7590,-0.1479,-41.0366,-28.5976,-0.2439
1595878859,0.6747,0.7648,-0.1329,-41.1585,-25.7927,-0.9146
1595878859,0.6663,0.7645,-0.1360,-41.2195,-25.9146,-1.7073
1595878859,0.6569,0.7513,-0.1564,-41.6463,-27.6829,-2.0122
1595878859,0.6547,0.7365,-0.1868,-41.7683,-29.3293,-2.5000
1595878859,0.6844,0.7415,-0.1891,-40.5488,-30.9146,-3.3537
1595878859,0.7280,0.7478,-0.1612,-39.4512,-30.4878,-4.3293
1595878859,0.7496,0.7697,-0.1359,-39.5122,-26.9512,-5.6707
1595878859,0.7527,0.8036,-0.1219,-39.5122,-21.9512,-6.7073
1595878859,0.7559,0.8260,-0.1096,-40.3049,-17.3171,-7.7439
1595878859,0.7450,0.8302,-0.1014,-42.0122,-14.2073,-9.3902
1595878859,0.7362,0.8364,-0.0945,-44.2073,-13.0488,-10.6707
1595878859,0.7220,0.8573,-0.0898,-46.7073,-11.8902,-12.5000
1595878859,0.6959,0.8635,-0.1056,-48.6585,-10.9146,-15.2439
1595878859,0.6696,0.8469,-0.1160,-50.1220,-11.4634,-19.3293
1595878859,0.6533,0.8209,-0.1122,-50.7317,-14.3902,-23.1707
1595878859,0.6682,0.8003,-0.0997,-50.1220,-19.7561,-25.9756
1595878859,0.6945,0.8015,-0.0744,-48.4146,-24.8171,-27.1951
1595878859,0.6956,0.8043,-0.0458,-46.2805,-27.0732,-27.3780
1595878859,0.6790,0.8043,-0.0212,-43.7195,-26.5244,-27.9268
1595878859,0.6489,0.7930,-0.0090,-41.2805,-25.0610,-28.0488
1595878859,0.6094,0.7853,-0.0059,-39.0244,-24.8171,-28.0488
1595878859,0.5799,0.7820,-0.0043,-36.4024,-26.5244,-27.8049
1595878859,0.5952,0.7771,-0.0059,-33.5366,-29.2683,-28.1098
1595878859,0.6330,0.7686,-0.0054,-32.5610,-30.0610,-28.9634
1595878859,0.6340,0.7737,-0.0074,-32.0122,-26.4024,-29.6951
1595878859,0.6187,0.7803,-0.0066,-30.3049,-20.7317,-30.6098
1595878859,0.6107,0.7800,-0.0051,-28.5976,-15.7317,-31.8293
1595878859,0.6151,0.7836,0.0089,-26.8293,-12.7439,-32.2561
1595878859,0.6060,0.7827,0.0210,-24.8171,-11.4024,-31.7683
1595878859,0.5811,0.7791,0.0224,-22.8049,-11.2805,-31.0976
1595878859,0.5556,0.7746,0.0184,-20.7317,-12.0732,-30.3049
1595878859,0.5516,0.7742,0.0213,-18.6585,-13.8415,-29.5122
1595878859,0.5678,0.7759,0.0342,-17.0122,-14.5732,-29.0244
1595878859,0.5687,0.7842,0.0401,-16.1585,-11.3415,-28.9634
1595878859,0.5601,0.8024,0.0500,-15.6098,-5.2439,-29.3902
1595878859,0.5463,0.8219,0.0587,-15.5488,0.9756,-30.3049
1595878859,0.5327,0.8422,0.0652,-15.6707,5.7317,-31.5244
1595878859,0.5226,0.8544,0.0764,-16.0366,9.3902,-33.1098
1595878859,0.4952,0.8525,0.0783,-16.6463,11.3415,-34.6341
1595878859,0.4786,0.8489,0.0676,-17.2561,11.4634,-36.2805
1595878859,0.5039,0.8546,0.0616,-17.1951,10.3049,-38.2317
1595878859,0.5228,0.8595,0.0595,-17.8659,10.9146,-39.5732
1595878859,0.5175,0.8586,0.0381,-18.8415,13.7805,-41.0366
1595878859,0.5156,0.8608,0.0140,-18.1707,19.2683,-43.2927
1595878859,0.5139,0.8666,0.0098,-17.2561,27.4390,-45.7317
1595878859,0.4839,0.8859,0.0134,-16.8902,35.6098,-47.4390
1595878859,0.4426,0.9124,0.0034,-15.1220,38.7805,-48.4756
1595878859,0.4095,0.9385,-0.0046,-12.6220,35.0610,-48.4756
1595878859,0.4186,0.9611,0.0143,-9.6341,25.5488,-47.6220
1595878859,0.4549,0.9644,0.0297,-7.8659,14.4512,-45.7927
1595878859,0.4491,0.9711,0.0318,-7.0732,8.2927,-43.4146
1595878859,0.4209,0.9811,0.0376,-4.7561,6.7683,-41.4634
1595878859,0.3998,0.9755,0.0385,-2.4390,5.3659,-39.7561
1595878859,0.3810,0.9636,0.0348,-1.5854,2.9268,-38.1098
1595878859,0.3699,0.9695,0.0551,-0.1829,0.6098,-36.0366
1595878859,0.3633,0.9703,0.0690,1.2805,-2.1341,-33.9024
1595878859,0.3511,0.9601,0.0623,1.7683,-4.7561,-32.6220
1595878859,0.3544,0.9718,0.0544,2.3780,-6.6463,-31.5244
1595878859,0.3774,0.9882,0.0616,3.1707,-8.0488,-30.2439
1595878859,0.3943,0.9936,0.0625,2.9268,-9.2073,-28.8415
1595878859,0.3850,0.9947,0.0651,3.1098,-9.4512,-27.3780
1595878859,0.3941,0.9902,0.0704,3.4146,-10.1220,-26.2195
1595878859,0.4102,0.9909,0.0671,3.1098,-12.1951,-24.8780
1595878859,0.4120,0.9861,0.0559,2.2561,-13.9634,-22.9878
1595878859,0.4027,0.9755,0.0510,1.8902,-15.0610,-21.3415
1595878859,0.3922,0.9713,0.0488,1.6463,-16.4024,-19.3293
1595878859,0.3983,0.9692,0.0458,1.7683,-18.5366,-17.0732
1595878859,0.4102,0.9677,0.0496,1.8902,-21.1585,-15.3049
1595878859,0.4141,0.9660,0.0550,2.1951,-22.0122,-13.8415
1595878859,0.4114,0.9711,0.0612,2.6829,-20.7927,-12.4390
1595878859,0.3974,0.9834,0.0676,3.0488,-18.2927,-11.2805
1595878859,0.3714,0.9897,0.0697,3.4146,-15.1829,-10.9146
1595878859,0.3287,0.9896,0.0728,3.0488,-12.3780,-10.6098
1595878859,0.3027,0.9844,0.0733,2.5000,-11.4024,-10.9146
1595878859,0.3126,0.9864,0.0746,1.4634,-13.7195,-11.7073
1595878859,0.3602,0.9800,0.0770,-0.6098,-18.3537,-11.6463
1595878859,0.3917,0.9728,0.0682,-2.4390,-20.6098,-12.1951
1595878859,0.3952,0.9597,0.0558,-3.3537,-18.4146,-12.5610
1595878859,0.3889,0.9537,0.0430,-3.7195,-14.5122,-12.6220
1595878859,0.3898,0.9575,0.0422,-3.5976,-12.2561,-12.5000
1595878859,0.4103,0.9622,0.0533,-3.6585,-11.2195,-12.5000
1595878859,0.4203,0.9688,0.0645,-3.8415,-8.8415,-12.2561
1595878859,0.4131,0.9770,0.0668,-3.9634,-4.6951,-11.4634
1595878859,0.4523,0.9767,0.0651,-3.5976,0.5488,-11.5244
1595878859,0.4639,0.9818,0.0521,-2.8659,5.1829,-12.0122
1595878859,0.4003,0.9873,0.0345,-1.7073,9.9390,-11.2805
1595878859,0.3774,0.9842,0.0424,-1.4024,13.5366,-11.0366
1595878859,0.4044,0.9758,0.0566,-3.4146,13.1707,-10.4268
1595878859,0.3737,0.9623,0.0529,-4.9390,10.9756,-9.6951
1595878859,0.3292,0.9511,0.0656,-4.6341,10.0000,-10.2439
1595878859,0.3295,0.9570,0.0718,-3.9024,8.0488,-11.4024
1595878859,0.3286,0.9686,0.0816,-5.2439,5.1220,-10.1829
1595878859,0.3221,0.9590,0.0864,-6.8293,3.7195,-9.5732
1595878859,0.3339,0.9603,0.0761,-6.9512,2.5610,-12.1341
1595878860,0.3389,0.9688,0.0554,-6.5244,2.2561,-12.5610
1595878860,0.3343,0.9657,0.0423,-6.6463,2.9878,-12.4390
1595878860,0.3027,0.9530,0.0124,-6.6463,3.5366,-13.9024
1595878860,0.1544,0.9692,0.0057,-5.9146,3.9634,-14.6341
1595878860,0.3060,1.0049,0.0994,-4.4512,7.8049,-16.1585
1595878860,0.5917,0.9930,0.0680,-4.8171,3.3537,-18.3537
1595878860,0.5192,0.9547,0.0133,-7.5000,-8.4756,-6.4634
1595878860,0.3340,0.9426,0.0133,-5.4268,-9.8171,-1.7683
1595878860,0.2672,0.9811,0.0359,-2.9268,-11.3415,-4.6951
1595878860,0.3629,0.9956,0.0555,-3.9634,-15.8537,-3.2927
1595878860,0.4678,0.9765,0.0485,-5.3659,-15.2439,-4.5732
1595878860,0.4315,0.9650,0.0316,-2.9268,-12.9878,-2.0122
1595878860,0.3479,0.9705,0.0276,-0.7317,-10.0610,0.8537
1595878860,0.3351,0.9832,0.0516,-2.2561,-8.8415,-0.4268
1595878860,0.3618,0.9757,0.0897,-4.8171,-9.6951,-0.7927
1595878860,0.3681,0.9749,0.1145,-6.4634,-5.9146,-1.7683
1595878860,0.3425,1.0021,0.1197,-5.7317,3.9634,-3.7195
1595878860,0.3137,0.9993,0.0872,-5.3659,12.6829,-6.2805
1595878860,0.3433,1.0068,0.0492,-6.7073,14.4512,-8.4146
1595878860,0.2922,1.0266,0.0795,-6.3415,8.8415,-10.1829
1595878860,0.2933,0.9857,0.0986,-7.0122,-4.5732,-11.4024
1595878860,0.3365,0.9568,0.0492,-11.7073,-13.5366,-15.3659
1595878860,0.4243,0.9532,0.0043,-11.0366,-13.9024,-17.1341
1595878860,0.5309,0.9949,-0.0044,-6.7683,-7.1341,-15.0000
1595878860,0.4704,1.0122,-0.0125,-4.6341,0.7927,-9.5732
1595878860,0.3503,0.9859,-0.0001,-5.1220,6.7683,-7.7439
1595878860,0.3193,0.9875,0.0294,-5.0000,12.8659,-10.6707
1595878860,0.3709,1.0002,0.0592,-4.9390,14.4512,-10.2439
1595878860,0.4065,0.9937,0.0762,-7.5610,14.5122,-6.9512
1595878860,0.3760,0.9940,0.0803,-9.1463,18.6585,-4.8171
1595878860,0.3371,1.0026,0.0864,-7.8049,24.8780,-3.0488
1595878860,0.3298,1.0068,0.0993,-6.6463,27.0732,-0.6707
1595878860,0.3375,1.0016,0.1047,-7.1341,24.6341,1.5244
1595878860,0.3292,0.9922,0.1099,-7.9878,20.5488,2.5000
1595878860,0.2806,0.9839,0.1044,-8.0488,16.4024,3.0488
1595878860,0.2303,0.9747,0.0894,-7.3171,10.7317,3.4146
1595878860,0.2537,0.9755,0.0764,-5.4268,1.8902,3.1098
1595878860,0.3101,0.9842,0.0718,-5.0000,-5.7927,3.4756
1595878860,0.3622,0.9921,0.0590,-5.7317,-7.7439,4.3902
1595878860,0.3923,0.9938,0.0343,-6.1585,-4.2683,4.3902
1595878860,0.4102,0.9954,0.0477,-6.0976,1.7073,4.8171
1595878860,0.4311,1.0110,0.1060,-6.2805,9.3293,5.4878
1595878860,0.3477,0.9825,0.0667,-7.1341,11.8293,6.4634
1595878860,0.3239,0.9484,0.0505,-8.3537,10.0000,7.1341
1595878860,0.3953,0.9695,0.0787,-8.4756,9.5122,6.2805
1595878860,0.3689,0.9539,0.0729,-9.0854,9.2683,7.6220
1595878860,0.3151,0.9335,0.0699,-10.0610,7.6829,8.3537
1595878860,0.3313,0.9571,0.0806,-8.7805,4.6951,7.4390
1595878860,0.3485,0.9577,0.0760,-7.8049,-1.4634,8.9024
1595878860,0.3680,0.9579,0.0701,-8.2317,-8.1707,11.1585
1595878860,0.3839,0.9718,0.0692,-7.8049,-10.8537,11.9512
1595878860,0.3735,0.9761,0.0784,-7.9878,-9.0854,12.3780
1595878860,0.3663,0.9871,0.0870,-8.7195,-4.3293,12.5000
1595878860,0.3537,1.0036,0.0995,-8.8415,1.0366,12.4390
1595878860,0.3351,1.0111,0.1212,-8.3537,5.1220,12.6829
1595878860,0.3121,1.0277,0.1313,-9.0244,8.9634,14.3902
1595878860,0.3057,1.0580,0.1187,-8.7195,11.4024,15.6707
1595878860,0.3364,1.0704,0.1004,-7.4390,12.1341,16.6463
1595878860,0.3729,1.0786,0.1084,-8.4146,14.6341,16.1585
1595878860,0.3828,1.0755,0.0991,-9.2073,19.0244,14.9390
1595878860,0.3740,1.1154,0.0776,-8.1098,21.5244,16.5854
1595878860,0.3928,1.1387,0.0985,-7.3171,21.2195,19.4512
1595878860,0.4558,1.1516,0.1282,-9.6341,21.5854,18.9634
1595878860,0.4047,1.1843,0.1353,-12.1951,23.5366,18.1707
1595878860,0.2773,1.1448,0.1583,-13.4146,26.3415,18.9024
1595878860,0.1901,1.1191,0.1642,-17.0122,28.7195,18.2317
1595878860,0.1367,1.1034,0.1673,-18.9024,27.1951,17.6220
1595878860,0.1325,1.0740,0.1512,-19.6951,21.7073,16.6463
1595878860,0.1485,1.0644,0.1473,-20.1220,16.0976,16.5854
1595878860,0.1650,1.0569,0.1632,-21.5854,10.6707,16.7073
1595878860,0.1840,1.0446,0.1993,-24.1463,5.7317,15.9756
1595878860,0.1837,1.0315,0.2345,-26.8902,2.6220,15.0610
1595878860,0.1548,1.0233,0.2507,-28.8415,1.2195,14.4512
1595878860,0.1169,1.0118,0.2443,-30.5488,0.4878,14.2073
1595878860,0.0942,1.0036,0.2330,-32.0122,-1.2195,13.3537
1595878860,0.0850,0.9999,0.2366,-33.3537,-6.1585,12.0732
1595878860,0.0768,0.9963,0.2469,-35.1220,-13.9634,10.5488
1595878860,0.0756,0.9823,0.2534,-37.0122,-21.3415,8.5976
1595878860,0.0898,0.9799,0.2453,-37.3780,-27.0732,7.1341
1595878860,0.1017,0.9951,0.2130,-35.9756,-33.5976,6.2195
1595878860,0.1302,0.9976,0.2081,-35.2439,-40.9756,4.7561
1595878860,0.1481,0.9893,0.2228,-38.1707,-45.1829,2.1341
1595878860,0.1291,0.9913,0.2394,-41.1585,-44.0854,-0.7317
1595878860,0.1011,0.9965,0.2552,-42.6829,-40.3049,-3.6585
1595878860,0.0802,0.9713,0.2544,-44.5122,-37.9878,-7.8659
1595878860,0.0670,0.9521,0.2575,-47.0122,-37.1341,-11.5854
1595878860,0.0662,0.9507,0.2614,-48.6585,-37.4390,-15.1220
1595878860,0.0510,0.9550,0.2621,-49.8171,-38.2927,-19.5122
1595878860,0.0500,0.9550,0.2600,-51.0976,-40.6098,-24.7561
1595878860,0.0655,0.9714,0.2469,-52.0122,-45.2439,-29.6951
1595878860,0.0920,0.9888,0.2368,-52.9268,-51.0976,-33.7805
1595878860,0.1052,1.0002,0.2302,-54.0244,-56.8902,-38.3537
1595878860,0.1075,0.9967,0.2247,-55.5488,-61.2805,-43.2317
1595878860,0.1243,1.0043,0.1891,-56.6463,-64.5122,-47.8049
1595878860,0.1411,1.0298,0.1531,-55.4878,-68.5366,-51.0976
1595878860,0.1502,1.0228,0.1390,-56.5244,-72.6220,-54.2073
1595878860,0.1479,1.0017,0.1401,-59.2683,-75.1220,-57.8659
1595878860,0.1339,1.0001,0.1531,-60.5488,-75.9146,-61.0976
1595878860,0.1252,1.0096,0.1567,-60.4268,-77.8659,-63.4756
1595878860,0.1298,1.0144,0.1545,-60.9146,-82.0122,-65.4878
1595878860,0.1345,1.0155,0.1479,-61.6463,-86.6463,-66.9512
1595878860,0.1292,1.0183,0.1379,-61.0366,-90.9756,-67.9268
1595878860,0.1356,1.0190,0.1226,-59.3293,-95.9146,-68.8415
1595878860,0.1437,1.0086,0.1077,-57.7439,-102.2561,-69.8781
1595878860,0.1567,0.9952,0.0995,-56.8293,-108.1707,-70.7317
1595878860,0.1688,0.9796,0.0903,-55.1220,-111.8293,-72.0122
1595878860,0.1689,0.9684,0.0846,-52.8049,-113.4146,-73.1707
1595878860,0.1814,0.9628,0.0811,-50.3049,-113.8415,-74.5122
1595878860,0.2077,0.9677,0.0791,-48.5366,-113.3537,-76.1585
1595878861,0.2243,0.9792,0.0749,-46.1585,-111.1585,-77.7439
1595878861,0.2233,0.9800,0.0754,-43.2927,-107.6220,-78.9634
1595878861,0.2292,0.9707,0.0712,-40.7317,-103.6585,-80.4878
1595878861,0.2437,0.9656,0.0689,-38.2927,-100.2439,-82.0122
1595878861,0.2516,0.9634,0.0645,-35.4878,-96.7073,-83.1707
1595878861,0.2509,0.9641,0.0588,-32.0732,-92.7439,-83.9024
1595878861,0.2565,0.9570,0.0615,-28.7195,-89.4512,-84.3293
1595878861,0.2734,0.9446,0.0754,-26.0366,-87.8659,-85.0610
1595878861,0.2872,0.9373,0.0834,-23.5366,-86.4634,-85.5488
1595878861,0.2907,0.9416,0.0911,-19.8171,-84.4512,-85.4268
1595878861,0.2979,0.9409,0.0995,-16.0366,-83.1707,-85.1220
1595878861,0.3081,0.9319,0.1097,-13.2927,-82.4390,-84.3902
1595878861,0.3179,0.9285,0.1164,-10.5488,-81.7683,-83.1707
1595878861,0.3218,0.9244,0.1230,-7.7439,-80.5488,-81.8293
1595878861,0.3306,0.9225,0.1264,-4.6951,-79.2073,-80.2439
1595878861,0.3368,0.9233,0.1363,-2.1341,-78.5976,-78.2317
1595878861,0.3403,0.9307,0.1439,0.1829,-78.0488,-75.8537
1595878861,0.3484,0.9391,0.1528,2.5000,-77.5000,-73.1707
1595878861,0.3522,0.9458,0.1613,4.5732,-76.7073,-70.3659
1595878861,0.3599,0.9523,0.1697,7.0122,-75.7927,-67.4390
1595878861,0.3674,0.9744,0.1733,9.5732,-74.7561,-64.3293
1595878861,0.3809,1.0027,0.1826,11.7683,-73.1098,-60.9756
1595878861,0.3950,1.0324,0.1990,12.9268,-70.5488,-57.8659
1595878861,0.4192,1.0587,0.2236,13.4756,-66.3415,-55.4268
1595878861,0.4370,1.0692,0.2433,13.5976,-59.9390,-53.2317
1595878861,0.4340,1.0701,0.2578,13.9024,-51.7073,-50.7317
1595878861,0.4198,1.0557,0.2605,14.3293,-42.6220,-47.7439
1595878861,0.4006,1.0275,0.2562,13.9024,-34.6951,-44.4512
1595878861,0.3754,0.9930,0.2557,13.3537,-29.8780,-40.6707
1595878861,0.3566,0.9695,0.2518,13.1098,-27.9268,-36.3415
1595878861,0.3449,0.9604,0.2501,12.8049,-28.4146,-32.0122
1595878861,0.3430,0.9593,0.2502,12.1951,-30.7317,-27.9268
1595878861,0.3412,0.9698,0.2432,11.4634,-33.5976,-23.7195
1595878861,0.3322,0.9838,0.2304,10.7927,-35.7927,-20.0610
1595878861,0.3173,1.0115,0.2172,11.2805,-37.9878,-16.8902
1595878861,0.3224,1.0462,0.2049,11.8293,-41.3415,-14.2073
1595878861,0.3400,1.0673,0.2072,10.9146,-45.2439,-12.2561
1595878861,0.3524,1.0748,0.2104,8.9024,-48.9024,-11.8293
1595878861,0.3677,1.0718,0.2188,7.2561,-51.1585,-12.4390
1595878861,0.3826,1.0605,0.2247,6.5244,-52.9268,-13.4146
1595878861,0.3994,1.0433,0.2293,6.0366,-54.4512,-14.4512
1595878861,0.4102,1.0294,0.2370,5.5488,-55.3659,-15.3049
1595878861,0.4157,1.0273,0.2496,5.4268,-55.4268,-15.9146
1595878861,0.4168,1.0252,0.2574,4.9390,-55.0000,-16.2195
1595878861,0.4214,1.0234,0.2675,4.4512,-54.1463,-15.7927
1595878861,0.4254,1.0219,0.2766,4.5732,-52.1951,-14.5732
1595878861,0.4138,1.0096,0.2805,4.7561,-49.1463,-12.6829
1595878861,0.4097,0.9857,0.2820,5.3049,-45.7317,-10.4268
1595878861,0.4136,0.9578,0.2823,5.7927,-42.8659,-7.4390
1595878861,0.4133,0.9357,0.2813,5.9756,-39.9390,-3.6585
1595878861,0.4087,0.9135,0.2811,6.2805,-35.9756,0.3049
1595878861,0.4089,0.8940,0.2794,6.3415,-30.9146,4.3293
1595878861,0.4058,0.8753,0.2744,5.7317,-25.1829,8.8415
1595878861,0.3875,0.8585,0.2639,4.5122,-12.6220,17.8659
1595878861,0.3801,0.8517,0.2620,3.6585,-6.5854,21.7683
1595878861,0.3533,0.8702,0.2567,-0.6098,7.7439,30.0610
1595878861,0.3491,0.8781,0.2492,-2.5610,10.4878,30.9146
1595878861,0.3654,0.9009,0.2408,-5.3659,9.6341,31.2805
1595878861,0.3970,0.9193,0.2078,-16.4024,-8.4756,26.3415
1595878861,0.4153,0.9357,0.2122,-18.6585,-15.8537,26.2805
1595878861,0.4193,0.9661,0.2119,-19.8780,-20.1829,27.4390
1595878861,0.4210,0.9644,0.2093,-19.8171,-23.0488,28.5976
1595878861,0.4716,0.9494,0.2064,-18.9024,-32.9878,34.5122
1595878862,0.4769,0.9532,0.2112,-16.3415,-28.6585,39.0854
1595878862,0.4818,0.9589,0.2274,-13.4146,-21.5854,43.7195
1595878862,0.4777,0.9632,0.2391,-12.1951,-18.1098,45.9146
1595878862,0.4653,0.9731,0.2474,-11.2805,-14.0854,47.8049
1595878862,0.4625,0.9875,0.2467,-10.1220,-9.3293,49.5122
1595878862,0.4435,0.9969,0.2553,-9.5732,0.9146,51.4634
1595878862,0.4218,0.9993,0.2724,-8.2927,10.5488,52.3781
1595878862,0.4144,0.9941,0.2822,-7.5000,14.5732,52.3171
1595878862,0.4016,0.9789,0.3104,-6.2805,21.8293,52.4390
1595878862,0.3931,0.9697,0.3212,-5.6707,25.6707,52.6829
1595878862,0.3800,0.9601,0.3302,-4.8171,29.5732,52.8659
1595878862,0.3683,0.9528,0.3364,-3.7805,33.4756,53.2317
1595878862,0.3489,0.9523,0.3390,-2.6220,37.1341,53.2927
1595878862,0.3215,0.9574,0.3551,-0.3049,41.9512,52.5610
1595878862,0.3148,0.9557,0.3599,-0.5488,43.6585,51.6463
1595878862,0.3021,0.9502,0.3635,-0.6098,45.2439,50.7927
1595878862,0.2861,0.9440,0.3732,-0.3049,46.8293,49.7561
1595878862,0.2732,0.9434,0.3820,-0.6707,48.7805,48.0488
1595878862,0.2543,0.9508,0.3840,-1.5244,50.4268,45.7927
1595878862,0.2350,0.9545,0.3892,-2.0732,50.7927,43.2927
1595878862,0.2181,0.9479,0.3954,-3.0488,49.6341,40.2439
1595878862,0.2006,0.9448,0.4011,-4.6951,47.0732,37.1341
1595878862,0.1797,0.9551,0.3967,-6.1585,43.4756,33.8415
1595878862,0.1545,0.9854,0.3802,-8.3537,33.7805,25.3049
1595878862,0.1376,1.0132,0.3719,-9.3293,28.9634,19.0854
1595878862,0.1254,1.0468,0.3621,-12.8659,10.1220,-5.7317
1595878862,0.1493,1.0480,0.3539,-14.3293,-5.7317,-22.0732
1595878862,0.1642,1.0460,0.3531,-15.4268,-13.2927,-30.6098
1595878862,0.1868,1.0340,0.3568,-17.0732,-20.3049,-39.3902
1595878862,0.2108,0.9835,0.3610,-20.9756,-31.2805,-54.6341
1595878862,0.2303,0.9772,0.3508,-23.1707,-35.6707,-66.7073
1595878862,0.2392,0.9832,0.3496,-23.7805,-35.1220,-71.9512
1595878862,0.2473,0.9847,0.3524,-24.0854,-34.2683,-76.6463
1595878862,0.2732,0.9778,0.3589,-24.2683,-33.5976,-83.1098
1595878862,0.2861,0.9600,0.3542,-24.0854,-33.7195,-85.0610
1595878862,0.2878,0.9460,0.3428,-23.7195,-33.5366,-85.4878
1595878862,0.2773,0.9288,0.3085,-22.5610,-33.1707,-84.2073
1595878862,0.2787,0.9205,0.2947,-22.5000,-35.1220,-82.4390
1595878862,0.2818,0.9202,0.2737,-22.1341,-39.2683,-76.2195
1595878862,0.2819,0.9226,0.2670,-21.3415,-40.3049,-72.4390
1595878862,0.2843,0.9114,0.2608,-19.3902,-41.3415,-63.3537
1595878862,0.2873,0.9006,0.2670,-15.7927,-41.7683,-53.6585
1595878862,0.2947,0.8974,0.2639,-13.6585,-42.1951,-49.1463
1595878862,0.3051,0.9021,0.2635,-11.5244,-42.0732,-44.6951
1595878862,0.3182,0.9066,0.2617,-8.9634,-41.2195,-40.7317
1595878862,0.3277,0.9017,0.2603,-6.5244,-39.2683,-37.2561
1595878862,0.3258,0.8854,0.2651,-4.2073,-35.9146,-34.0244
1595878862,0.3193,0.8675,0.2660,-1.8902,-31.6463,-31.0366
1595878862,0.3177,0.8539,0.2694,0.3049,-27.2561,-28.4146
1595878862,0.3142,0.8441,0.2733,1.8293,-23.1098,-26.0976
1595878862,0.2843,0.8564,0.2592,6.5854,-6.3415,-19.5122
1595878862,0.2380,0.8381,0.2568,10.5488,-4.2073,-16.7683
1595878862,0.2361,0.8422,0.2861,17.9268,-12.3780,-12.1341
1595878862,0.2349,0.8360,0.2977,19.2683,-12.9878,-11.1585
1595878862,0.2336,0.8309,0.3045,20.7317,-13.0488,-10.4268
1595878862,0.2307,0.8280,0.3132,22.1951,-12.5610,-9.6951
1595878862,0.2289,0.8270,0.3202,23.2317,-11.8293,-9.2683
1595878862,0.2321,0.8360,0.3298,24.2073,-11.1585,-9.1463
1595878863,0.2316,0.8516,0.3395,25.0610,-10.1829,-9.0244
1595878863,0.2413,0.8765,0.3704,26.7683,-5.7927,-9.5732
1595878863,0.2476,0.8904,0.4069,27.1951,0.4268,-9.0244
1595878863,0.2273,0.8822,0.4231,25.7927,7.0732,-7.0122
1595878863,0.2147,0.8851,0.4273,24.8780,10.4878,-5.0610
1595878863,0.2031,0.8872,0.4320,23.7805,12.9878,-2.8659
1595878863,0.1932,0.8893,0.4373,22.4390,14.2073,-0.5488
1595878863,0.1546,0.8866,0.4283,19.2683,13.9024,4.5732
1595878863,0.1282,0.8818,0.4127,16.5244,8.4146,10.0000
1595878863,0.1234,0.8856,0.4035,15.0610,2.5610,12.3780
1595878863,0.1272,0.8977,0.3498,9.3902,-17.5000,15.4268
1595878863,0.1180,0.9545,0.3187,6.4634,-34.8780,13.7195
1595878863,0.1400,0.9990,0.3257,4.6951,-41.0976,11.7073
1595878863,0.2305,1.1121,0.3541,1.2805,-50.4878,6.2805
1595878863,0.2437,1.1376,0.3630,-0.3049,-51.4024,2.1951
1595878863,0.2446,1.1664,0.3715,0.1829,-50.3049,-1.7073
1595878863,0.2710,1.2483,0.3734,4.5732,-49.0244,-10.4268
1595878863,0.3194,1.1654,0.3319,7.1951,-33.7195,-11.5854
1595878863,0.2992,1.1157,0.3271,8.3537,-25.7317,-7.9268
1595878863,0.1868,0.9609,0.3193,8.4756,-5.4268,14.0854
1595878863,0.0760,0.9496,0.2646,4.5122,4.9390,25.9146
1595878863,0.0180,0.9872,0.2217,1.0976,6.2805,28.1707
1595878863,-0.0189,1.0718,0.2105,-10.6098,-31.0976,20.4878
1595878863,0.0287,1.1288,0.1599,-16.7073,-70.3049,9.1463
1595878863,0.0959,1.1333,0.1432,-23.6585,-81.8293,0.1220
1595878863,0.1082,1.1140,0.1407,-25.3659,-82.1951,-1.2195
1595878863,0.0970,1.0752,0.1240,-26.9512,-76.2195,-3.8415
1595878863,0.0558,1.0403,0.0903,-23.5366,-62.0732,-5.3049
1595878863,0.0537,1.0386,0.0847,-22.3171,-59.6951,-5.7927
1595878863,0.0658,1.0495,0.0778,-17.9878,-48.3537,-18.4146
1595878863,0.0584,1.0413,0.0734,-17.4390,-45.3049,-22.0732
1595878863,0.0579,1.0302,0.0750,-17.0122,-42.4390,-26.0976
1595878863,0.0701,1.0338,0.0807,-16.5854,-39.4512,-29.6951
1595878863,0.0830,1.0525,0.0870,-16.4024,-35.6707,-33.3537
1595878863,0.0837,1.0728,0.0899,-16.4634,-30.9146,-37.0732
1595878863,0.0720,1.0854,0.0979,-16.7683,-25.8537,-40.7317
1595878863,0.0679,1.1021,0.1073,-17.1341,-21.7683,-43.5976
1595878863,0.0544,1.1312,0.1174,-20.6098,-17.5610,-48.7805
1595878863,0.0374,1.1401,0.1116,-22.3171,-16.7683,-51.1585
1595878863,-0.0414,1.1427,0.0622,-28.9024,-48.7195,-61.6463
1595878863,-0.0236,1.1580,0.0642,-29.9390,-57.8049,-63.7805
1595878863,0.0164,1.1783,0.0629,-31.8293,-74.9390,-71.0976
1595878863,0.0916,1.1394,0.1119,-33.4146,-77.8659,-82.4390
1595878863,0.0914,1.1179,0.1176,-32.8049,-75.3659,-84.9390
1595878863,0.1016,1.1138,0.1259,-28.9024,-65.7927,-89.2683
1595878863,0.0873,1.1058,0.1254,-23.7805,-55.1829,-93.2317
1595878863,0.0953,1.0778,0.1310,-19.0854,-47.5000,-95.5488
1595878863,0.0901,1.0516,0.1347,-16.1585,-43.7195,-96.4024
1595878863,0.0922,1.0317,0.1390,-12.8659,-41.0366,-97.3781
1595878863,0.0971,1.0125,0.1431,-10.0000,-39.8171,-98.1098
1595878863,0.1121,0.9739,0.1570,-3.3537,-38.8415,-99.1463
1595878863,0.1216,0.9584,0.1683,0.1220,-37.8049,-99.4512
1595878863,0.1356,0.9448,0.1741,3.5366,-36.2805,-99.4512
1595878863,0.1444,0.9274,0.1839,6.7683,-34.2683,-99.1463
1595878863,0.1535,0.9064,0.1970,10.0000,-31.9512,-98.5976
1595878863,0.1808,0.8840,0.2195,15.7317,-26.2195,-96.2805
1595878863,0.1907,0.8737,0.2313,18.2317,-22.2561,-94.7561
1595878863,0.1940,0.8588,0.2463,20.6707,-17.8659,-92.9268
1595878863,0.2019,0.8512,0.2625,22.5610,-13.1098,-90.7317
1595878863,0.1924,0.8339,0.3011,28.5366,2.3780,-80.7317
1595878863,0.1855,0.8245,0.3121,29.8780,6.4024,-76.5854
1595878863,0.1820,0.8188,0.3242,31.0976,9.1463,-71.7073
1595878863,0.1712,0.8167,0.3368,32.5000,11.3415,-66.3415
1595878863,0.1536,0.8102,0.3492,33.5976,13.4146,-61.0976
1595878863,0.1348,0.8111,0.3624,34.3902,14.7561,-55.7927
1595878864,0.1224,0.8197,0.3766,34.9390,15.6098,-50.2439
1595878864,0.1074,0.8326,0.3867,35.2439,15.4878,-44.5732
1595878864,0.0877,0.8414,0.3974,34.8171,14.6951,-38.9024
1595878864,0.0661,0.8434,0.4030,34.2073,13.0488,-33.5976
1595878864,0.0480,0.8506,0.4069,33.6585,10.0610,-28.1098
1595878864,0.0347,0.8524,0.4096,32.7439,5.6098,-22.6829
1595878864,0.0264,0.8552,0.4119,31.2805,0.5488,-17.4390
1595878864,0.0216,0.8647,0.4182,29.5732,-4.6951,-12.1951
1595878864,-0.0336,0.8959,0.4349,23.7195,-15.4878,2.5000
1595878864,-0.0459,0.9009,0.4373,20.9146,-18.5976,7.0122
1595878864,-0.0596,0.9050,0.4462,18.1098,-21.7683,11.3415
1595878864,-0.0739,0.9209,0.4505,15.6707,-24.3902,16.1585
1595878864,-0.1037,0.9326,0.4465,13.4756,-26.9512,20.7927
1595878864,-0.1397,0.9276,0.4432,11.4634,-30.3049,24.4512
1595878864,-0.1962,0.9341,0.4308,8.6585,-39.0244,31.0976
1595878864,-0.2220,0.9349,0.4270,7.5610,-43.9634,33.1098
1595878864,-0.2321,0.9362,0.4160,6.2805,-49.2683,34.3902
1595878864,-0.2335,0.9471,0.4119,5.0610,-54.7561,35.6707
1595878864,-0.2263,0.9577,0.4099,4.2073,-59.4512,36.7073
1595878864,-0.2273,0.9674,0.4012,1.4024,-65.3049,37.4390
1595878864,-0.2188,0.9691,0.4062,-0.2439,-67.1951,37.1341
1595878864,-0.2014,0.9827,0.4122,-1.7683,-68.7195,36.4024
1595878864,-0.1892,1.0036,0.3742,-8.4756,-57.8659,31.8293
1595878864,-0.2021,1.0016,0.3613,-9.4512,-51.8902,30.3659
1595878864,-0.2003,1.0038,0.3471,-10.6098,-46.4634,28.7805
1595878864,-0.2044,0.9999,0.3359,-11.8902,-42.2561,27.1951
1595878864,-0.2008,0.9889,0.3268,-12.9268,-38.4756,25.3049
1595878864,-0.1812,0.9902,0.3162,-13.5366,-30.7927,21.2805
1595878864,-0.1605,0.9868,0.3151,-13.8415,-27.5610,18.8415
1595878864,-0.1548,0.9857,0.3066,-14.2073,-20.9756,14.6341
1595878864,-0.1557,0.9806,0.2781,-13.0488,-11.1585,7.8659
1595878864,-0.1553,0.9847,0.2651,-12.6220,-8.6585,6.1585
1595878864,-0.1438,0.9804,0.2535,-11.0976,-5.9146,2.1341
1595878864,-0.1222,0.9694,0.2504,-8.6585,-5.1829,-3.3537
1595878864,-0.1113,0.9777,0.2490,-7.6220,-4.4512,-4.6341
1595878864,-0.0977,0.9883,0.2539,-6.5244,-1.7683,-7.3171
1595878864,-0.0817,0.9868,0.2632,-5.9756,-0.4268,-8.4756
1595878864,-0.0685,0.9770,0.2708,-5.4268,0.1829,-9.5122
1595878864,-0.0613,0.9700,0.2786,-4.6341,0.4268,-10.1829
1595878864,-0.0662,0.9643,0.2860,-3.9024,1.8902,-10.3659
1595878864,-0.0822,0.9503,0.2749,-0.7927,7.3780,-11.4024
1595878864,-0.0740,0.9516,0.2737,0.4268,7.1951,-11.2805
1595878864,-0.0679,0.9485,0.2747,1.0366,6.3415,-11.3415
1595878864,-0.0643,0.9425,0.2761,1.4634,5.9756,-11.4634
1595878864,-0.0662,0.9443,0.2822,2.4390,6.2805,-11.3415
1595878864,-0.0810,0.9437,0.2839,3.8415,5.9146,-10.9756
1595878864,-0.0795,0.9453,0.2875,4.5732,4.9390,-10.7927
1595878864,-0.0515,0.9472,0.3074,5.2439,2.0122,-10.3659
1595878864,-0.0429,0.9471,0.3183,4.6951,0.9756,-10.3049
1595878864,-0.0475,0.9379,0.3265,4.4512,0.7927,-10.4268
1595878864,-0.0543,0.9332,0.3297,4.5732,1.5244,-9.8780
1595878864,-0.0641,0.9371,0.3273,5.1220,2.6829,-9.2683
1595878864,-0.0792,0.9399,0.3104,5.2439,1.5854,-6.9512
1595878864,-0.0471,0.9351,0.3447,7.6829,-9.8171,-4.2683
1595878864,-0.0464,0.9315,0.3544,8.4756,-3.4146,-3.7195
1595878864,-0.0478,0.9315,0.3503,8.4146,-1.1585,-3.5366
1595878864,-0.0507,0.9484,0.3484,6.0976,7.8049,-1.4024
1595878864,-0.0510,0.9540,0.3510,5.4878,8.2317,-0.9146
1595878864,-0.0588,0.9553,0.3520,5.1220,9.1463,-0.2439
1595878865,-0.0753,0.9601,0.3441,2.6829,9.6341,1.7683
1595878865,-0.0794,0.9515,0.3394,2.0122,7.9878,2.6220
1595878865,-0.0762,0.9528,0.3343,1.3415,5.7927,3.3537
1595878865,-0.0714,0.9600,0.3351,0.3049,1.5854,4.1463
1595878865,-0.0481,0.9757,0.3466,-1.2805,-1.8293,4.5732
1595878865,-0.0400,0.9826,0.3516,-1.8902,-1.2195,5.0610
1595878865,-0.0479,0.9893,0.3478,-3.5366,3.5366,6.7073
1595878865,-0.0529,0.9950,0.3438,-5.8537,4.4512,7.7439
1595878865,-0.0688,1.0051,0.3406,-6.7073,6.0366,8.2927
1595878865,-0.0614,0.9996,0.3417,-7.8049,5.0000,8.4756
1595878865,-0.0554,0.9980,0.3422,-8.8415,4.0244,8.8415
1595878865,-0.0391,0.9911,0.3356,-10.0610,6.8293,11.0366
1595878865,-0.0274,0.9919,0.3409,-10.8537,7.6220,11.6463
1595878865,-0.0140,0.9882,0.3472,-11.6463,8.9024,12.4390
1595878865,0.0454,0.9617,0.3502,-14.6951,19.6951,19.3293
1595878865,0.0776,0.9620,0.3531,-14.8780,20.0000,22.0732
1595878865,0.1247,0.9625,0.3530,-15.2439,19.5122,25.4268
1595878865,0.1655,0.9584,0.3566,-15.5488,19.7561,29.8171
1595878865,0.2166,0.9576,0.3604,-15.9146,21.2195,34.8780
1595878865,0.2839,0.9584,0.3636,-16.3415,23.2927,40.0000
1595878865,0.3416,0.9592,0.3557,-17.1951,26.3415,46.0976
1595878865,0.3913,0.9545,0.3466,-17.7439,31.7073,52.9878
1595878865,0.4247,0.9438,0.3384,-17.3171,38.9024,60.2439
1595878865,0.4344,0.9310,0.3361,-16.0976,46.4634,67.9268
1595878865,0.4385,0.9143,0.3358,-14.3902,52.0122,75.4268
1595878865,0.4691,0.8918,0.3395,-13.2927,55.0610,82.7439
1595878865,0.5212,0.8808,0.3392,-13.2317,57.0732,90.1220
1595878865,0.5573,0.8802,0.3382,-13.8415,60.9146,97.9268
1595878865,0.5686,0.8528,0.3011,-10.4878,83.7805,115.9756
1595878865,0.6279,0.8616,0.2440,-10.1220,89.6951,127.7439
1595878865,0.6779,0.8104,0.1198,11.1585,88.0488,161.5244
1595878865,0.7189,0.8079,0.0920,26.4024,91.3415,171.5244
1595878865,0.7202,0.8193,0.0927,39.7561,100.6098,176.5244
1595878865,0.7439,0.8299,0.0678,45.1829,103.7195,178.9634
1595878865,0.7571,0.8267,0.0436,49.8781,106.8293,180.7317
1595878865,0.7708,0.8348,0.0222,55.5488,109.3293,182.3171
1595878865,0.8479,0.8704,-0.0267,74.0244,107.6220,182.3781
1595878865,0.8653,0.8604,-0.0117,78.1707,107.5610,181.1585
1595878865,0.8007,0.8569,-0.0367,81.7683,119.0854,176.2195
1595878865,0.7460,0.8624,-0.0592,83.1098,124.0244,173.4756
1595878865,0.7128,0.8553,-0.0824,82.6220,124.7561,170.2439
1595878865,0.7628,0.8647,-0.0579,83.7195,114.2683,161.4024
1595878865,0.7904,0.8480,-0.0237,82.0122,110.2439,156.8293
1595878865,0.7702,0.8422,0.0191,80.1829,111.9512,152.0122
1595878865,0.5496,0.7978,0.0500,73.5976,130.4878,133.5976
1595878865,0.5660,0.7933,0.0400,70.9146,127.6220,126.8902
1595878865,0.6073,0.8130,0.0426,69.2073,120.7317,119.8171
1595878865,0.5958,0.8405,0.0511,66.7073,116.5854,110.2439
1595878865,0.5433,0.8492,0.0581,64.2683,115.7317,99.3293
1595878865,0.5309,0.8890,0.0479,60.1829,115.3049,65.9756
1595878865,0.5309,0.9139,0.0681,57.7439,116.7683,56.4024
1595878865,0.4766,0.9211,0.0981,53.1098,122.6220,45.6098
1595878865,0.4406,0.9073,0.0867,47.8049,132.3171,33.7195
1595878865,0.4469,0.9458,0.1152,46.1585,140.1219,23.9024
1595878865,0.3992,0.9776,0.1458,44.5732,144.0854,16.0366
1595878865,0.2589,0.9693,0.1400,40.9756,152.0732,6.5244
1595878865,0.1534,0.9796,0.1041,41.0366,160.3659,-4.2683
1595878865,0.1791,1.0450,0.0972,43.3537,157.8049,-13.0488
1595878865,0.2504,1.0932,0.1259,41.0366,143.7805,-20.1829
1595878865,0.2662,1.1198,0.1887,38.7195,129.0244,-44.8171
1595878865,0.1551,1.1563,0.2350,44.0244,93.5976,-60.6098
1595878865,0.1844,1.1324,0.5054,35.0000,84.1463,-58.0488
1595878865,0.2421,1.1169,0.5060,31.0366,85.0610,-54.6951
1595878865,0.3006,1.1092,0.5125,29.6341,85.8537,-50.2439
1595878866,0.0855,0.9908,0.5433,21.4024,23.5366,-33.2927
1595878866,0.2818,1.0120,0.5408,26.5854,21.5854,-32.1341
1595878866,0.3254,1.0025,0.5363,18.5366,25.7927,-30.9146
1595878866,0.0758,0.9391,0.5910,17.2561,66.0366,-29.7561
1595878866,0.1279,0.9398,0.5803,18.9634,67.1341,-27.5610
1595878866,0.1829,0.9243,0.6060,16.2805,45.8537,-23.2317
1595878866,0.2040,0.9409,0.6210,15.3659,24.7561,-20.6707
1595878866,0.2433,0.9533,0.6089,12.6829,15.8537,-18.7195
1595878866,0.2176,0.9687,0.5746,6.6463,18.8415,-17.6220
1595878866,0.2183,0.9921,0.5455,2.8049,28.4146,-14.5732
1595878866,0.2740,1.0093,0.5591,-0.2439,32.9268,-8.7805
1595878866,0.3403,0.9909,0.5684,-3.9024,33.2317,-3.7805
1595878866,0.3387,0.9739,0.5544,-7.8659,37.9268,-0.2439
1595878866,0.3297,0.9989,0.5607,-7.8049,49.2683,5.0610
1595878866,0.2949,0.9800,0.5662,-8.9024,59.9390,11.5244
1595878866,0.2638,0.9394,0.5671,-9.2073,67.5000,17.0122
1595878866,0.2845,0.9585,0.5547,-7.2561,74.8781,20.9146
1595878866,0.2066,0.9189,0.5049,-6.2805,83.5366,22.9268
1595878866,0.0739,0.8690,0.4767,-5.7317,93.5366,22.7439
1595878866,0.0970,0.8715,0.4829,-3.5366,96.3415,21.7683
1595878866,0.1620,0.8775,0.4818,-4.0854,90.1829,20.0610
1595878866,0.1218,0.8684,0.4711,-5.0000,86.1585,18.6585
1595878866,0.0430,0.8036,0.4916,-7.2561,89.7561,12.3780
1595878866,-0.0403,0.7422,0.5515,-2.8659,88.2317,3.2927
1595878866,0.0604,0.8463,0.6199,5.4878,70.2439,1.8293
1595878866,0.2107,0.8947,0.5957,6.7073,67.0732,2.2561
1595878866,-0.0372,0.8632,0.5514,7.1951,59.5732,7.7439
1595878866,0.0030,0.8743,0.5381,7.8659,47.0122,6.5854
1595878866,0.1193,0.8399,0.5272,1.5244,17.4390,4.2683
1595878866,0.0815,0.8435,0.5740,4.6341,17.8659,1.8902
1595878866,0.0436,0.8460,0.5611,4.0244,18.1707,2.5000
1595878866,0.0189,0.8466,0.5447,2.3171,18.2317,0.7317
1595878866,0.0023,0.8524,0.4767,1.4024,-4.7561,-6.4024
1595878866,0.0630,0.8815,0.4888,3.7195,-19.9390,-8.9024
1595878866,0.0363,0.8792,0.4764,2.5610,-20.6707,-13.1707
1595878866,0.0910,0.8972,0.4850,3.7805,-23.7805,-14.6341
1595878866,0.0220,0.9744,0.5246,10.3659,-78.5976,-11.7683
1595878866,0.0237,0.9763,0.4664,8.8415,-148.9024,-4.6341
1595878866,0.2197,1.0113,0.5001,4.8171,-218.4756,2.1341
1595878866,0.2979,1.1006,0.5094,3.6585,-228.8415,6.2195
1595878866,0.2944,1.1569,0.5087,-3.0488,-251.3415,19.7561
1595878866,0.8253,1.1639,0.3637,-27.1951,-289.3903,77.6829
1595878866,0.8356,1.1304,0.3622,-26.6463,-268.3537,91.2805
1595878866,0.7961,1.0879,0.3326,-25.0610,-239.5122,103.6585
1595878866,0.8043,1.0358,0.2795,-22.4390,-216.7073,116.2195
1595878866,0.9403,0.9417,0.1486,-13.8415,-196.8902,135.1829
1595878866,0.7645,0.6075,0.0867,24.0854,-54.3902,130.9756
1595878866,0.7267,0.5019,0.1762,36.7683,-8.2927,120.9146
1595878866,0.7128,0.4271,0.1805,41.4024,6.8293,113.1707
1595878866,0.7059,0.3911,0.1599,49.1463,16.5244,106.7073
1595878866,0.5598,0.3539,0.1365,58.4756,63.0488,80.6707
1595878866,0.4883,0.3875,0.2162,56.8902,90.6707,67.8659
1595878866,0.4810,0.4366,0.2756,55.7317,116.1585,56.1585
1595878866,0.5532,0.5042,0.3680,52.7439,133.9024,47.7439
1595878867,0.5966,0.5784,0.4731,47.9878,144.2683,40.7927
1595878867,0.5532,0.5859,0.5457,36.4634,156.2805,33.5366
1595878867,0.4969,0.5865,0.6241,25.1220,171.5244,25.7317
1595878867,0.5441,0.6439,0.7325,16.4634,182.9878,20.6098
1595878867,0.5926,0.6812,0.7703,4.3902,191.3415,18.9024
1595878867,0.5331,0.6571,0.7313,-7.6829,197.7439,20.7317
1595878867,0.4112,0.6348,0.6899,-11.4634,196.2805,25.0610
1595878867,0.2424,0.5845,0.6425,-12.9878,180.3049,27.1951
1595878867,0.1840,0.5364,0.5582,-13.6585,145.2439,26.8293
1595878867,0.4349,0.6041,0.6872,-17.5610,-34.5732,17.0732
1595878867,0.4838,0.5775,0.6891,-19.6341,-57.4390,14.7561
1595878867,0.4863,0.5219,0.6093,-20.5488,-85.9146,12.8049
1595878867,0.4475,0.5227,0.5627,-19.6951,-98.9024,9.9390
1595878867,0.6711,0.4214,0.4888,-33.5976,-97.9878,-3.7805
1595878867,0.5889,0.3954,0.4875,-32.1951,-79.3902,-8.2317
1595878867,0.5447,0.3102,0.4039,-26.9512,-71.5854,-24.6951
1595878867,0.6342,0.2921,0.3309,-17.1341,-89.9390,-34.6951
1595878867,0.6766,0.3290,0.2532,-2.5610,-114.1463,-42.0122
1595878867,0.7651,0.3726,0.2499,4.6341,-128.0488,-46.7683
1595878867,0.9053,0.4208,0.2211,11.8293,-123.8415,-52.4390
1595878867,0.9387,0.4406,0.1884,18.4756,-105.3659,-56.4024
1595878867,0.9180,0.4268,0.1443,26.1585,-87.0122,-59.5732
1595878867,0.6927,0.3924,-0.0881,48.1098,-56.8293,-64.3293
1595878867,1.1561,0.7095,0.0133,62.3171,-20.0610,-73.2317
1595878867,1.0696,0.7583,0.1232,58.9024,89.7561,-72.8049
1595878867,0.7758,0.7710,0.0507,55.0610,130.0610,-40.9146
1595878867,0.8054,0.8438,0.1226,54.8781,119.6341,-34.5732
1595878867,0.9034,0.8853,0.1562,52.0732,115.3659,-30.1220
1595878867,0.8417,0.8574,0.1511,44.2073,127.8659,-28.2317
1595878867,0.7485,0.7994,0.1868,47.4390,138.8415,-22.5000
1595878867,0.5886,0.8565,0.2327,48.6585,172.5000,-21.2805
1595878867,0.2723,0.9664,0.2852,47.1951,165.9146,-24.7561
1595878867,0.1802,1.1068,0.4412,49.2073,154.6342,-29.0854
1595878867,0.2203,1.1592,0.5767,41.8293,144.0244,-38.2317
1595878867,0.1837,1.1758,0.6216,34.0854,139.0854,-43.9024
1595878867,0.0836,1.1989,0.5806,32.2561,134.0854,-38.7195
1595878867,-0.0850,1.2061,0.4678,33.2927,127.0122,-39.8780
1595878867,-0.0912,1.2836,0.4231,36.8902,108.5366,-44.2683
1595878867,-0.0691,1.3341,0.4955,35.5488,67.0732,-41.9512
1595878867,0.0554,1.2950,0.5764,26.9512,19.2683,-41.5854
1595878867,0.1337,1.3887,0.6799,28.2927,-26.4634,-35.4878
1595878867,0.1521,1.3655,0.6044,22.3780,-85.7317,-13.4756
1595878867,0.1501,1.3106,0.5304,13.2927,-125.3659,-10.4268
1595878867,0.1785,1.2540,0.5871,6.4634,-138.7805,-2.9878
1595878867,0.1511,1.2445,0.4966,-3.9634,-136.7683,3.9024
1595878867,-0.0024,1.1337,0.3441,-12.5610,-115.1829,9.9390
1595878867,-0.0946,1.0937,0.2756,-13.5976,-93.9634,9.7561
1595878867,-0.2678,1.0510,0.1668,-14.6341,-97.1951,11.4634
1595878867,-0.4267,1.1661,0.1465,-11.0366,-139.3902,17.0732
1595878867,-0.2336,1.2261,0.1337,-8.4146,-214.5732,12.0122
1595878867,0.2001,1.2736,0.1423,-15.4878,-290.8537,4.7561
1595878867,0.4034,1.2281,0.1668,-30.1220,-325.7317,13.5366
1595878867,0.4181,0.9796,0.0779,-42.9878,-294.6342,18.4756
1595878867,0.4342,1.0272,-0.0169,-38.6585,-223.7195,12.9268
1595878867,0.7985,1.1848,-0.1932,-56.5854,59.5732,29.2683
1595878867,0.5085,1.3033,-0.2834,-23.2927,122.0122,22.5610
1595878867,0.3676,1.2280,-0.3108,-14.0244,136.2805,17.0732
1595878867,0.1385,1.0288,-0.2342,-24.6951,112.8659,15.3049
1595878867,0.0754,0.9897,-0.1082,-18.2927,68.7805,14.5732
1595878867,0.5073,0.9818,0.0829,-40.1829,-90.1829,-16.7073
1595878867,0.5499,0.9989,0.0930,-47.5610,-92.4390,-23.5976
1595878867,0.5103,0.9542,0.0585,-57.3781,-96.6463,-38.5366
1595878867,0.5751,0.9473,0.0232,-63.0488,-126.6463,-51.2195
1595878867,0.6192,0.9538,-0.0582,-62.1341,-142.1342,-58.9634
1595878867,0.6301,0.9290,-0.1237,-63.0488,-147.8659,-65.1220
1595878867,0.6036,0.9043,-0.1644,-64.0244,-145.9756,-71.6463
1595878867,0.5358,0.8663,-0.2078,-67.3781,-140.0000,-81.0366
1595878867,0.4592,0.8140,-0.2438,-73.5366,-130.3659,-91.7073
1595878868,0.4354,0.7961,-0.2733,-78.9024,-115.0000,-100.2439
1595878868,0.4913,0.8295,-0.1938,-88.4146,-88.3537,-112.3781
1595878868,0.5052,0.8339,-0.1562,-94.5732,-83.7195,-118.5976
1595878868,0.5609,0.8732,-0.1273,-100.1220,-90.4268,-122.9268
1595878868,0.5845,0.9028,-0.0927,-99.3902,-101.5244,-122.7439
1595878868,0.5688,0.9202,-0.0399,-101.7683,-125.1829,-125.9756
1595878868,0.5157,0.8995,-0.0543,-103.5366,-134.1463,-127.8049
1595878868,0.4516,0.8931,-0.0771,-104.0854,-143.1707,-128.1098
1595878868,0.4089,0.9088,-0.0876,-104.5122,-153.4146,-128.7195
1595878868,0.4206,0.9176,-0.1023,-105.1220,-165.8537,-129.9390
1595878868,0.4570,0.9488,-0.1519,-107.1341,-190.3659,-127.6220
1595878868,0.4245,0.9330,-0.2017,-104.6951,-202.6220,-123.2927
1595878868,0.4363,0.9269,-0.2049,-100.0610,-213.6585,-116.8902
1595878868,0.4642,0.9316,-0.1985,-98.1707,-215.3049,-113.4146
1595878868,0.4754,0.9379,-0.1660,-96.4024,-212.1342,-110.3049
1595878868,0.4635,0.9280,-0.1209,-97.7439,-200.0610,-105.4268
1595878868,0.4247,0.9006,-0.0941,-100.9146,-177.8049,-101.7683
1595878868,0.4128,0.9083,-0.0743,-87.0122,-153.2317,-105.0610
1595878868,0.4594,0.9485,-0.0309,-74.2683,-150.0000,-95.0610
1595878868,0.4191,0.9573,-0.0466,-73.5976,-132.1951,-92.2561
1595878868,0.4160,0.9650,-0.0743,-68.8415,-120.9146,-93.5366
1595878868,0.4182,0.9473,-0.0650,-65.3049,-120.3049,-96.0366
1595878868,0.3665,0.9631,-0.0156,-53.5366,-124.3293,-93.3537
1595878868,0.3864,0.9923,0.0078,-46.4024,-129.1463,-91.7073
1595878868,0.4284,0.9880,0.0367,-42.3780,-138.6585,-88.7805
1595878868,0.4444,0.9850,0.0610,-38.9634,-149.1463,-86.0366
1595878868,0.4438,0.9834,0.0762,-34.6341,-156.4024,-82.3171
1595878868,0.4383,0.9607,0.0818,-31.0976,-159.6951,-79.2073
1595878868,0.4312,0.9448,0.0723,-27.8659,-161.5244,-76.7073
1595878868,0.4428,0.9589,0.0550,-22.8659,-163.5366,-73.9024
1595878868,0.4609,0.9722,0.0438,-17.5610,-166.7683,-70.9146
1595878868,0.4857,0.9565,0.0497,-15.1829,-170.7317,-68.3537
1595878868,0.5228,0.9465,0.0826,-14.1463,-173.7805,-66.8293
1595878868,0.5452,0.9340,0.1242,-13.2927,-173.8415,-64.8171
1595878868,0.5294,0.9058,0.1572,-12.7439,-169.8171,-61.5854
1595878868,0.5134,0.8787,0.1752,-11.8293,-164.1463,-58.5976
1595878868,0.5291,0.8484,0.1880,-11.0976,-156.8293,-51.1585
1595878868,0.5430,0.8478,0.1877,-11.8902,-154.1463,-47.4390
1595878868,0.5381,0.8834,0.1838,-12.1341,-149.4512,-43.5366
1595878868,0.5034,0.9402,0.1731,-12.0122,-143.1098,-39.7561
1595878868,0.5088,0.9728,0.1888,-14.7561,-136.8293,-37.3171
1595878868,0.5486,0.9845,0.2206,-21.0976,-131.6463,-38.1098
1595878868,0.5675,1.0066,0.2401,-24.6341,-127.7439,-40.4268
1595878868,0.5768,1.0225,0.2472,-25.4878,-125.2439,-39.9390
1595878868,0.5860,1.0360,0.2480,-27.0122,-126.6463,-38.9634
1595878868,0.5894,1.0458,0.2401,-28.4146,-130.4268,-40.0610
1595878868,0.6076,1.0444,0.2202,-29.5732,-134.5122,-41.8293
1595878868,0.6202,1.0571,0.2024,-31.7683,-137.4390,-42.1341
1595878868,0.6176,1.0867,0.1796,-34.0244,-136.7073,-41.8902
1595878868,0.6119,1.1020,0.1608,-36.5854,-131.6463,-42.9268
1595878868,0.6019,1.0896,0.1553,-38.5976,-125.9756,-44.2683
1595878868,0.5801,1.0550,0.1520,-39.9390,-123.1707,-44.2683
1595878868,0.5607,1.0112,0.1596,-39.9390,-124.3902,-42.5000
1595878868,0.5471,0.9653,0.1788,-38.9634,-129.2683,-40.3049
1595878868,0.5339,0.9219,0.1961,-37.6829,-135.5488,-37.3780
1595878868,0.5147,0.8859,0.2138,-36.5854,-140.6707,-33.4756
1595878868,0.5088,0.8594,0.2282,-34.6951,-143.4146,-29.0854
1595878868,0.5056,0.8417,0.2343,-33.1707,-144.1463,-24.0244
1595878868,0.5008,0.8374,0.2415,-32.2561,-143.1707,-18.5366
1595878868,0.4982,0.8281,0.2444,-32.3780,-139.5122,-14.4512
1595878868,0.4859,0.8099,0.2549,-33.4146,-133.7195,-11.4634
1595878868,0.4695,0.8105,0.2671,-33.4146,-127.8659,-10.1220
1595878868,0.4580,0.8195,0.2709,-33.6585,-121.8293,-9.7561
1595878868,0.4589,0.8252,0.2667,-36.1585,-116.0366,-9.6341
1595878868,0.4584,0.8488,0.2527,-38.2317,-111.0366,-10.3659
1595878868,0.4587,0.8656,0.2377,-39.8171,-107.1951,-11.5244
1595878868,0.4460,0.8831,0.2352,-42.1951,-103.7805,-12.3171
1595878868,0.4337,0.9104,0.2354,-44.1463,-101.5244,-13.8415
1595878868,0.4414,0.9390,0.2348,-46.2195,-101.8293,-16.2195
1595878868,0.4377,0.9692,0.2332,-49.2683,-104.1463,-17.6829
1595878868,0.4323,0.9913,0.2222,-52.5610,-105.7317,-18.9024
1595878868,0.4258,0.9865,0.2078,-56.9512,-103.7805,-21.0366
1595878868,0.4117,0.9962,0.1913,-58.8415,-101.7683,-23.5976
1595878868,0.4000,1.0103,0.1688,-58.5976,-102.2561,-24.5732
1595878868,0.4048,1.0049,0.1567,-59.5122,-106.6463,-24.7561
1595878868,0.4214,0.9975,0.1578,-60.3659,-113.8415,-25.1220
1595878868,0.4344,0.9964,0.1654,-60.0000,-120.4878,-25.1829
1595878868,0.4401,0.9944,0.1760,-59.4512,-124.6341,-25.3049
1595878868,0.4310,0.9864,0.1890,-59.2073,-126.9512,-25.7317
1595878868,0.4216,0.9811,0.1984,-57.9878,-128.6585,-26.3415
1595878868,0.4214,0.9772,0.2103,-56.0976,-130.7317,-26.7683
1595878868,0.4247,0.9704,0.2146,-54.5122,-132.9268,-27.0122
1595878868,0.4218,0.9597,0.2086,-53.2317,-134.0244,-27.2561
1595878868,0.4291,0.9551,0.2124,-50.9146,-134.7561,-27.9878
1595878868,0.4422,0.9369,0.2170,-48.9634,-135.8537,-29.2073
1595878868,0.4540,0.9059,0.2114,-48.0488,-136.5244,-30.3049
1595878868,0.4635,0.8817,0.2085,-45.6707,-135.5488,-31.8902
1595878868,0.4716,0.8749,0.2184,-41.6463,-132.8659,-33.9634
1595878868,0.4628,0.8597,0.2100,-39.8780,-129.2073,-36.2195
1595878868,0.4454,0.8420,0.2043,-37.9878,-123.9024,-39.1463
1595878868,0.4400,0.8489,0.2049,-34.3293,-118.5366,-43.1098
1595878868,0.4471,0.8660,0.2098,-32.1341,-114.2683,-46.8293
1595878868,0.4508,0.8687,0.2140,-31.9512,-110.1829,-50.4268
1595878868,0.4474,0.8627,0.2050,-31.9512,-105.0610,-54.3902
1595878868,0.4528,0.8640,0.2015,-30.0610,-100.2439,-57.8049
1595878868,0.4691,0.8553,0.2021,-27.3780,-97.5000,-60.9146
1595878868,0.4967,0.8416,0.2056,-26.2195,-97.3171,-63.8415
1595878868,0.5280,0.8438,0.2219,-25.7317,-98.0488,-66.7073
1595878868,0.5437,0.8441,0.2596,-26.0366,-97.5610,-69.6341
1595878868,0.5594,0.8391,0.2958,-27.1341,-94.5122,-73.5976
1595878868,0.5613,0.8510,0.3401,-27.7439,-88.5976,-77.3171
1595878868,0.5349,0.8709,0.3585,-28.3537,-80.9146,-79.3293
1595878868,0.4755,0.9007,0.3553,-27.6829,-73.7195,-79.6341
1595878868,0.4283,0.9429,0.3597,-26.5854,-71.7683,-79.6341
1595878868,0.4075,0.9801,0.3521,-27.7439,-75.4268,-81.0976
1595878868,0.3974,1.0294,0.3276,-31.1585,-81.0976,-82.2561
1595878868,0.3802,1.0858,0.2912,-33.4756,-86.5854,-82.2561
1595878868,0.3814,1.1373,0.2683,-34.8780,-93.9024,-83.1098
1595878868,0.4083,1.1877,0.2577,-37.3780,-103.7195,-85.0610
1595878868,0.4312,1.2159,0.2520,-39.4512,-113.7805,-87.1341
1595878868,0.4446,1.2339,0.2587,-39.8780,-122.1341,-89.2073
1595878868,0.4551,1.2521,0.2670,-40.3049,-127.7439,-90.6707
1595878868,0.4507,1.2488,0.2900,-40.3659,-131.4024,-92.5000
1595878868,0.4300,1.1916,0.3118,-39.9390,-134.3293,-95.4268
1595878868,0.4031,1.0908,0.3407,-39.3902,-138.0488,-96.9512
1595878868,0.3835,0.9939,0.3576,-38.4146,-143.7195,-95.8537
1595878868,0.3699,0.9234,0.3779,-36.3415,-151.1585,-91.8293
1595878868,0.3278,0.8633,0.3843,-34.3902,-158.9634,-86.0976
1595878869,0.2748,0.8154,0.3642,-32.9878,-165.1219,-79.4512
1595878869,0.2520,0.8013,0.3254,-29.8780,-170.0000,-71.5854
1595878869,0.3030,0.8105,0.3320,-25.9756,-175.4268,-61.9512
1595878869,0.4045,0.8138,0.3657,-25.2439,-178.2317,-51.4634
1595878869,0.4438,0.7882,0.3845,-28.7805,-171.8293,-40.6707
1595878869,0.4082,0.7679,0.3906,-30.8537,-155.7927,-30.8537
1595878869,0.3569,0.7800,0.3918,-29.6341,-136.5244,-23.1098
1595878869,0.3415,0.8014,0.3951,-29.5732,-120.4878,-15.8537
1595878869,0.3256,0.8159,0.3940,-32.0732,-109.7561,-9.6951
1595878869,0.3004,0.8210,0.3848,-35.6707,-102.7439,-5.2439
1595878869,0.2783,0.8485,0.3688,-38.4146,-96.2195,-2.8659
1595878869,0.2480,0.8729,0.3357,-40.9146,-91.7683,-1.8902
1595878869,0.2197,0.8855,0.2911,-44.6341,-90.2439,-1.2195
1595878869,0.2004,0.8868,0.2563,-47.1951,-94.3293,-2.6220
1595878869,0.2130,0.8799,0.2414,-49.7561,-103.9024,-5.1829
1595878869,0.2755,0.8602,0.2177,-52.0732,-116.1585,-8.1098
1595878869,0.3168,0.8634,0.2137,-53.1707,-127.4390,-8.9024
1595878869,0.3157,0.8431,0.2115,-52.2561,-136.4024,-8.7805
1595878869,0.3406,0.8248,0.2307,-50.9756,-144.1463,-10.4268
1595878869,0.3654,0.8304,0.2578,-48.8415,-151.5854,-10.1829
1595878869,0.3485,0.8182,0.2923,-46.8293,-155.6098,-7.8049
1595878869,0.3231,0.7984,0.3250,-45.6098,-154.8781,-5.8537
1595878869,0.3159,0.7899,0.3448,-43.9634,-151.0366,-3.5976
1595878869,0.3162,0.7909,0.3422,-42.4390,-146.5244,0.0610
1595878869,0.3026,0.7928,0.3187,-40.9146,-141.2195,3.0488
1595878869,0.2999,0.7960,0.3004,-38.9634,-137.4390,3.9634
1595878869,0.3087,0.7977,0.2958,-37.8659,-137.0122,4.7561
1595878869,0.3420,0.8062,0.3150,-37.6220,-138.4146,6.4024
1595878869,0.3934,0.8184,0.3411,-37.5610,-139.2073,7.5610
1595878869,0.4229,0.8026,0.3382,-38.0488,-138.4146,7.9878
1595878869,0.4265,0.7884,0.3281,-38.2927,-135.6707,7.8659
1595878869,0.4409,0.7726,0.3293,-37.5000,-129.9390,6.6463
1595878869,0.4371,0.7639,0.3209,-36.8902,-121.4024,5.3659
1595878869,0.4265,0.7603,0.3118,-35.1829,-112.9878,4.8780
1595878869,0.4266,0.7440,0.2855,-34.0854,-108.0488,3.9024
1595878869,0.4437,0.7198,0.2709,-33.2927,-107.3781,2.2561
1595878869,0.4843,0.6957,0.2769,-32.7439,-108.2927,0.1220
1595878869,0.5222,0.6809,0.2762,-32.9268,-106.2805,-1.8293
1595878869,0.5251,0.6749,0.2724,-31.8293,-100.0000,-3.9024
1595878869,0.5115,0.6749,0.2776,-30.4878,-90.2439,-6.1585
1595878869,0.5070,0.6761,0.2762,-30.1829,-80.1829,-7.9268
1595878869,0.5116,0.6830,0.2827,-29.8780,-71.3415,-9.8780
1595878869,0.5121,0.6938,0.3003,-29.3293,-62.5000,-12.7439
1595878869,0.5198,0.7038,0.3203,-28.7195,-54.9390,-15.0610
1595878869,0.5239,0.7166,0.3248,-28.4756,-51.0976,-17.0122
1595878869,0.5164,0.7349,0.3259,-27.3780,-50.0000,-19.2683
1595878869,0.5334,0.7542,0.3405,-24.5732,-50.5488,-22.1341
1595878869,0.5240,0.7521,0.3074,-22.8659,-53.9634,-24.0854
1595878869,0.5281,0.7556,0.2853,-21.0976,-59.8781,-25.4878
1595878869,0.5488,0.7717,0.2714,-18.9024,-65.7927,-27.4390
1595878869,0.5426,0.7740,0.2838,-17.8049,-70.9756,-28.1707
1595878869,0.5354,0.7624,0.3052,-17.5610,-73.8415,-28.5976
1595878869,0.5370,0.7700,0.3138,-16.0976,-76.9512,-29.8171
1595878869,0.5894,0.8270,0.3230,-13.4756,-81.8293,-30.6707
1595878869,0.6608,0.9074,0.3522,-11.5854,-84.2683,-32.8659
1595878869,0.7067,0.9730,0.3944,-10.7927,-80.4878,-36.8902
1595878869,0.7123,1.0179,0.4205,-10.0000,-71.0976,-41.8902
1595878869,0.7085,1.0533,0.4117,-9.2073,-60.0610,-46.9512
1595878869,0.6844,1.0679,0.3829,-7.8659,-50.9756,-51.2195
1595878869,0.6266,1.0545,0.3504,-6.1585,-43.6585,-54.6341
1595878869,0.5777,1.0184,0.3184,-3.7805,-39.3902,-56.4024
1595878869,0.5467,0.9638,0.2853,-2.2561,-40.4878,-56.9512
1595878869,0.5224,0.9162,0.2682,-1.4634,-45.5488,-55.5488
1595878869,0.5202,0.8904,0.2722,-0.0610,-51.4634,-51.9512
1595878869,0.5167,0.8804,0.2844,1.6463,-55.5488,-46.3415
1595878869,0.5136,0.8674,0.2943,3.2927,-58.5366,-39.4512
1595878869,0.5358,0.8786,0.3118,4.8171,-62.2561,-32.5610
1595878869,0.5929,0.9399,0.3234,7.0122,-65.8537,-24.3902
1595878869,0.5817,0.9693,0.3246,6.4024,-65.9146,-18.1098
1595878869,0.5380,0.9916,0.3098,5.1220,-58.6585,-16.7683
1595878869,0.5422,1.0590,0.2979,3.6585,-48.0488,-13.7195
1595878869,0.5576,1.1023,0.2917,-0.3659,-39.5732,-9.0244
1595878869,0.5618,1.0952,0.2482,-6.2195,-29.8171,-7.3171
1595878869,0.5214,1.0921,0.2118,-10.3049,-15.2439,-5.8537
1595878869,0.4494,1.0535,0.2004,-13.2317,-2.1341,-4.2683
1595878869,0.4587,1.0138,0.2280,-18.2317,2.0732,-4.3902
1595878869,0.5041,1.0279,0.2629,-23.1098,-2.0732,-3.4756
1595878869,0.4972,1.0802,0.2570,-25.5488,-5.9756,-0.7317
1595878869,0.4390,1.1291,0.2274,-25.6098,-6.7683,2.3171
1595878869,0.3892,1.1339,0.2047,-25.0610,-10.7927,5.3049
1595878869,0.3781,1.0780,0.2015,-27.2561,-21.2805,8.1707
1595878869,0.3744,0.9849,0.1830,-31.2195,-33.5366,11.7073
1595878869,0.3771,0.9126,0.1498,-32.4390,-42.5000,14.5122
1595878869,0.3931,0.8834,0.1409,-29.5122,-49.0244,17.9268
1595878869,0.3990,0.8499,0.1393,-26.5244,-52.9268,22.0122
1595878869,0.3835,0.8154,0.1620,-25.6707,-52.6829,24.9390
1595878869,0.3615,0.8292,0.2302,-25.3049,-49.6341,27.3780
1595878869,0.3564,0.8616,0.2400,-26.5854,-46.6463,27.8049
1595878869,0.3952,0.9039,0.2209,-27.1951,-46.2195,27.3171
1595878869,0.4016,0.9052,0.1760,-26.5244,-47.3781,27.5610
1595878869,0.3848,0.8726,0.1309,-25.9146,-49.6951,25.8537
1595878869,0.3859,0.8459,0.0952,-25.5488,-53.2927,23.6585
1595878869,0.4031,0.8268,0.0630,-24.5122,-57.3171,20.9146
1595878869,0.4040,0.8130,0.0433,-23.8415,-58.7195,17.3171
1595878869,0.4142,0.8025,0.0491,-23.0488,-57.5000,13.4146
1595878869,0.4314,0.8123,0.0902,-22.6829,-55.6098,9.0854
1595878869,0.4419,0.8757,0.1456,-23.1098,-52.1951,4.8171
1595878869,0.4348,0.9620,0.1863,-24.5122,-45.9756,0.9146
1595878869,0.4050,0.9954,0.1865,-26.6463,-40.7927,-2.1341
1595878869,0.3931,0.9861,0.1667,-28.9024,-40.0610,-4.0854
1595878869,0.4003,0.9786,0.1495,-31.0366,-42.6829,-4.3293
1595878869,0.4086,0.9641,0.1274,-33.1098,-46.4024,-4.2683
1595878869,0.4144,0.9378,0.1035,-34.6341,-50.1220,-5.6098
1595878870,0.4360,0.9226,0.0774,-34.0244,-53.7805,-7.1341
1595878870,0.4819,0.9202,0.0621,-31.5854,-57.2561,-8.2927
1595878870,0.5409,0.9214,0.0871,-29.2683,-58.5366,-9.9390
1595878870,0.5776,0.9243,0.1273,-27.8049,-56.3415,-12.5000
1595878870,0.5634,0.9363,0.1724,-27.4390,-48.9024,-15.4878
1595878870,0.5084,0.9684,0.2181,-26.9512,-38.0488,-18.1098
1595878870,0.4507,0.9940,0.2454,-27.1341,-27.9878,-20.3049
1595878870,0.4005,0.9838,0.2463,-29.2073,-22.1341,-21.3415
1595878870,0.3734,0.9479,0.2324,-32.0122,-22.1951,-21.7073
1595878870,0.3685,0.9191,0.2137,-34.2683,-26.9512,-21.4024
1595878870,0.3775,0.8953,0.2074,-36.0366,-34.7561,-19.8780
1595878870,0.4121,0.8757,0.2027,-37.6220,-44.8780,-18.8415
1595878870,0.4555,0.8723,0.2076,-39.6951,-53.3537,-18.7195
1595878870,0.4991,0.9008,0.2222,-40.4878,-57.8049,-19.3902
1595878870,0.5334,0.9501,0.2356,-40.8537,-57.3781,-21.2195
1595878870,0.5525,0.9930,0.2350,-41.3415,-51.3415,-24.0854
1595878870,0.5592,1.0256,0.2307,-41.7683,-42.0122,-28.5366
1595878870,0.5494,1.0531,0.2234,-41.8902,-32.5000,-34.3902
1595878870,0.5369,1.0524,0.2151,-41.1585,-25.3659,-40.8537
1595878870,0.5089,1.0054,0.2327,-40.6707,-20.2439,-47.2561
1595878870,0.4628,0.9401,0.2711,-38.9634,-17.9268,-53.1098
1595878870,0.4241,0.8837,0.3087,-36.6463,-18.7805,-58.2317
1595878870,0.4195,0.8484,0.3480,-34.6341,-21.0976,-62.6829
1595878870,0.4534,0.8387,0.3782,-32.4390,-24.0854,-65.1829
1595878870,0.5059,0.8354,0.3967,-30.9756,-28.4146,-65.1220
1595878870,0.5487,0.8345,0.4119,-29.4512,-32.6829,-63.4146
1595878870,0.5620,0.8474,0.4446,-25.7317,-35.3049,-61.1585
1595878870,0.5521,0.8481,0.4722,-22.8049,-34.9390,-58.4146
1595878870,0.5380,0.8289,0.4854,-21.8902,-30.9756,-55.6098
1595878870,0.5266,0.8033,0.4861,-20.9756,-23.9634,-52.3781
1595878870,0.5034,0.7824,0.4851,-19.5122,-14.0854,-48.5366
1595878870,0.4846,0.7766,0.4943,-17.3780,-3.5366,-44.5732
1595878870,0.4668,0.7737,0.4985,-15.8537,5.7927,-40.3049
1595878870,0.4398,0.7730,0.4974,-15.2439,13.5976,-36.2195
1595878870,0.4109,0.7771,0.4946,-14.9390,19.4512,-32.1951
1595878870,0.3850,0.7802,0.4866,-15.1829,23.7195,-28.1707
1595878870,0.3607,0.7880,0.4707,-15.1220,26.7683,-24.6341
1595878870,0.3488,0.7893,0.4435,-14.4512,27.4390,-21.7683
1595878870,0.3594,0.7927,0.4172,-13.5366,26.5854,-19.3293
1595878870,0.3702,0.7960,0.4072,-11.8902,24.3293,-16.9512
1595878870,0.3500,0.7811,0.3892,-11.2805,22.5610,-15.5488
1595878870,0.3340,0.7764,0.4001,-10.6707,22.0732,-14.7561
1595878870,0.3169,0.7704,0.4078,-9.8780,21.4024,-14.2073
1595878870,0.3339,0.7548,0.4155,-9.0854,18.5976,-13.5366
1595878870,0.3653,0.7448,0.4216,-9.2073,15.7927,-12.3780
1595878870,0.3588,0.7380,0.4263,-8.0488,16.2805,-10.9756
1595878870,0.3303,0.7249,0.4242,-6.2805,19.9390,-9.7561
1595878870,0.3015,0.7296,0.4225,-4.5122,23.9024,-8.4146
1595878870,0.2900,0.7446,0.4142,-2.8659,26.4634,-6.5854
1595878870,0.2957,0.7654,0.4117,-1.1585,27.3780,-5.1829
1595878870,0.3073,0.7776,0.4236,0.2439,28.0488,-4.7561
1595878870,0.3187,0.7766,0.4329,0.9146,29.6951,-4.6341
1595878870,0.3238,0.7804,0.4461,2.0122,30.6098,-3.7195
1595878870,0.3055,0.7780,0.4540,2.1341,30.5488,-2.9878
1595878870,0.2695,0.7717,0.4514,1.5854,31.0366,-2.9878
1595878870,0.2478,0.7779,0.4341,0.9756,30.9146,-3.1098
1595878870,0.2501,0.7944,0.4282,0.3049,29.6951,-2.8659
1595878870,0.2732,0.8060,0.4290,-0.4878,28.0488,-2.7439
1595878870,0.2865,0.8090,0.4382,-0.6707,26.5854,-2.6829
1595878870,0.2792,0.8037,0.4431,-0.2439,25.3659,-2.0732
1595878870,0.2828,0.7941,0.4391,0.2439,24.4512,-1.0366
1595878870,0.2888,0.7908,0.4280,1.5854,23.1098,0.3659
1595878870,0.2815,0.7989,0.4335,3.5976,22.0122,2.1951
1595878870,0.2666,0.8151,0.4474,4.3293,22.0732,3.7195
1595878870,0.2599,0.8469,0.4453,3.5976,22.6829,4.6341
1595878870,0.2706,0.9333,0.4134,4.0854,23.1098,5.1220
1595878870,0.3141,1.0480,0.3833,7.3171,22.9268,5.5488
1595878870,0.3318,1.1096,0.3601,8.2317,23.0488,7.0122
1595878870,0.2955,1.1338,0.3615,5.1829,23.1098,11.0366
1595878870,0.2797,1.1445,0.3761,0.7927,20.6098,16.4024
1595878870,0.3331,1.1426,0.4037,-6.2805,14.4512,21.7073
1595878870,0.4193,1.1450,0.4449,-13.4146,5.4878,27.3780
1595878870,0.4845,1.1469,0.4647,-18.9634,-2.8049,33.7195
1595878870,0.5278,1.1639,0.4661,-21.6463,-7.6220,42.3780
1595878870,0.5524,1.1902,0.4517,-20.9146,-11.4024,53.4146
1595878870,0.5541,1.2067,0.4338,-19.5122,-16.1585,65.3049
1595878870,0.5967,1.1972,0.3878,-19.6341,-20.3659,76.4634
1595878870,0.6663,1.1747,0.3615,-21.8293,-20.3049,86.8902
1595878870,0.7352,1.1343,0.3457,-23.0488,-15.2439,96.5244
1595878870,0.7797,1.0995,0.3097,-23.0488,-5.3659,105.0610
1595878870,0.7537,1.0947,0.2663,-21.1585,4.6951,113.1707
1595878870,0.7015,1.0645,0.2303,-17.2561,9.1463,120.5488
1595878870,0.6681,0.9828,0.2189,-15.4268,7.3780,125.6098
1595878870,0.6989,0.9062,0.2164,-14.2073,2.5610,128.1098
1595878870,0.7524,0.8791,0.2059,-11.3415,-2.3780,130.2439
1595878870,0.7519,0.8524,0.1783,-7.9268,-5.7317,133.5976
1595878870,0.7321,0.8007,0.1586,-3.5976,-6.0976,137.1951
1595878870,0.7601,0.7579,0.1342,1.2805,-6.5244,138.8415
1595878870,0.7681,0.7275,0.0999,5.2439,-6.1585,139.4512
1595878870,0.7219,0.6897,0.0714,8.4756,-1.2195,139.7561
1595878870,0.6785,0.6465,0.0425,14.3293,6.4024,139.3902
1595878870,0.6578,0.6012,0.0208,22.0732,12.3780,138.2927
1595878870,0.6442,0.5634,0.0050,30.0610,14.0244,136.5244
1595878870,0.6138,0.5444,0.0189,38.1098,10.7927,134.6951
1595878870,0.6359,0.5218,0.0311,45.0000,5.0610,132.2561
1595878870,0.7231,0.4888,0.0247,49.8781,0.4268,128.2317
1595878870,0.7164,0.4854,-0.0040,56.5854,2.1341,125.2439
1595878870,0.6127,0.4951,-0.0353,67.5610,8.8415,122.8659
1595878870,0.5572,0.4723,-0.0306,76.5854,11.1585,117.5610
1595878870,0.5767,0.4399,-0.0129,82.9268,6.4634,111.3415
1595878870,0.6460,0.4368,0.0178,89.7561,-0.3659,107.0732
1595878870,0.7081,0.4407,0.0165,96.5244,-4.4512,103.4146
1595878871,0.7123,0.4245,-0.0202,102.6829,-4.0244,98.5366
1595878871,0.6912,0.4208,-0.0576,109.2073,-3.7805,93.2317
1595878871,0.6785,0.4290,-0.0796,115.1220,-7.3780,88.4756
1595878871,0.6580,0.4202,-0.0923,119.0854,-12.7439,83.1707
1595878871,0.6377,0.4031,-0.1089,123.0488,-15.7317,76.3415
1595878871,0.6173,0.3983,-0.1289,128.2317,-16.2805,68.6585
1595878871,0.6154,0.4102,-0.1427,134.3293,-17.4390,62.0122
1595878871,0.6297,0.4265,-0.1326,139.3293,-20.9146,56.0976
1595878871,0.6541,0.4441,-0.1318,142.9268,-25.8537,49.2683
1595878871,0.6964,0.4691,-0.1312,145.4268,-29.2683,42.8049
1595878871,0.6996,0.5030,-0.1172,147.0732,-32.6220,37.3171
1595878871,0.6846,0.5255,-0.1018,148.2927,-37.3780,32.1341
1595878871,0.6907,0.5294,-0.0831,147.8659,-39.7561,26.0976
1595878871,0.6603,0.5422,-0.0557,146.6463,-39.0854,19.6341
1595878871,0.6102,0.5442,-0.0735,146.4634,-39.8171,13.3537
1595878871,0.6172,0.5513,-0.1017,147.0122,-42.9268,6.2805
1595878871,0.6364,0.5762,-0.1196,147.3781,-49.3902,-0.3049
1595878871,0.6603,0.6113,-0.1057,145.8537,-56.8293,-7.0122
1595878871,0.7221,0.6575,-0.0958,139.6951,-61.5854,-14.3902
1595878871,0.7827,0.7120,-0.0649,130.7927,-57.1951,-21.8902
1595878871,0.8026,0.7333,-0.0493,122.0122,-42.5000,-29.6341
1595878871,0.7797,0.7468,-0.0247,112.6829,-19.3902,-37.0732
1595878871,0.7286,0.7719,-0.0112,103.9634,4.1463,-43.1707
1595878871,0.6668,0.8055,-0.0145,96.7683,21.7073,-47.9878
1595878871,0.6132,0.8469,-0.0168,90.9146,27.1951,-52.0732
1595878871,0.6014,0.8877,-0.0134,85.3049,20.0000,-54.6341
1595878871,0.6182,0.9194,-0.0114,79.3293,5.0000,-56.2805
1595878871,0.6345,0.9481,-0.0107,73.9024,-12.7439,-57.0732
1595878871,0.6667,0.9736,-0.0168,69.2073,-27.9878,-57.5610
1595878871,0.7204,0.9910,-0.0375,64.2683,-36.1585,-58.4146
1595878871,0.7299,0.9985,-0.0466,58.9634,-33.7805,-59.8171
1595878871,0.7032,0.9922,-0.0564,53.7805,-21.3415,-62.5000
1595878871,0.6919,0.9957,-0.0535,49.7561,-4.2073,-65.6707
1595878871,0.6522,1.0094,-0.0591,46.5244,11.9512,-67.9268
1595878871,0.6055,1.0290,-0.0625,44.2073,24.7561,-69.0854
1595878871,0.5889,1.0445,-0.0380,42.4390,30.1220,-69.2073
1595878871,0.5986,1.0447,-0.0189,39.5122,30.1220,-68.4756
1595878871,0.6193,1.0427,-0.0117,36.7073,30.8537,-67.8659
1595878871,0.6188,1.0316,-0.0258,34.1463,35.6098,-66.5854
1595878871,0.6119,1.0241,-0.0367,32.0732,43.2927,-65.9146
1595878871,0.6154,1.0316,-0.0465,29.8171,52.0122,-65.2439
1595878871,0.6033,1.0429,-0.0498,27.0122,59.9390,-64.1463
1595878871,0.5621,1.0544,-0.0475,24.3902,65.3659,-63.2317
1595878871,0.5409,1.0610,-0.0399,21.7073,68.2317,-62.6829
1595878871,0.5593,1.0660,-0.0317,18.7195,68.3537,-61.7683
1595878871,0.5627,1.0595,-0.0386,14.9390,68.2927,-60.2439
1595878871,0.5458,1.0626,-0.0507,11.8293,69.0854,-59.1463
1595878871,0.5450,1.0683,-0.0529,10.1829,67.0732,-57.1951
1595878871,0.5470,1.0714,-0.0334,8.5366,58.8415,-53.4756
1595878871,0.5512,1.0587,-0.0130,6.4024,46.5854,-48.6585
1595878871,0.5818,1.0504,-0.0128,4.2073,34.4512,-43.4146
1595878871,0.6395,1.0460,-0.0340,3.5366,24.6951,-38.2317
1595878871,0.6561,1.0400,-0.0499,3.5366,19.0854,-33.5976
1595878871,0.6293,1.0253,-0.0491,2.4390,18.2317,-30.1220
1595878871,0.6353,1.0215,-0.0430,1.0366,22.0732,-27.6220
1595878871,0.6461,1.0139,-0.0447,-0.1220,30.9146,-25.5488
1595878871,0.6356,0.9946,-0.0504,-1.9512,43.2927,-23.9634
1595878871,0.6125,0.9826,-0.0359,-3.4756,54.5122,-23.0488
1595878871,0.5779,0.9757,-0.0129,-4.8171,61.2195,-21.9512
1595878871,0.5466,0.9624,-0.0165,-6.9512,64.5122,-20.9756
1595878871,0.5412,0.9485,-0.0135,-8.2317,65.6098,-20.3659
1595878871,0.5610,0.9277,-0.0230,-9.0854,63.7805,-19.2683
1595878871,0.5569,0.9069,-0.0464,-9.9390,62.8659,-18.9634
1595878871,0.5464,0.9099,-0.0772,-9.3293,65.4878,-19.8780
1595878871,0.5395,0.9147,-0.0647,-9.0854,68.4756,-21.4024
1595878871,0.5309,0.9070,-0.0156,-11.6463,71.9512,-24.0244
1595878871,0.5096,0.9005,0.0176,-14.4512,76.0366,-26.4024
1595878871,0.5114,0.9222,0.0341,-14.3293,76.1585,-26.3415
1595878871,0.5319,0.9092,-0.0256,-13.7805,69.5732,-23.6585
1595878871,0.5228,0.9091,-0.0176,-12.2561,60.4878,-20.1220
1595878871,0.5590,0.9106,-0.0079,-10.4878,50.2439,-16.7683
1595878871,0.5800,0.9189,-0.0106,-10.4878,39.3293,-14.0854
1595878871,0.5823,0.9267,0.0007,-9.4512,31.5244,-11.4634
1595878871,0.5757,0.9312,0.0098,-8.7195,26.4634,-9.2683
1595878871,0.5750,0.9349,-0.0040,-7.9268,21.9512,-6.8293
1595878871,0.5777,0.9415,-0.0076,-7.2561,18.0488,-3.9024
1595878871,0.5461,0.9547,-0.0124,-7.4390,14.2683,-2.2561
1595878871,0.5211,0.9672,-0.0119,-7.1341,10.1829,-0.4878
1595878871,0.5266,0.9766,-0.0140,-7.8049,3.4756,1.7683
1595878871,0.5347,0.9866,-0.0151,-8.2927,-3.9024,4.2073
1595878871,0.5198,0.9928,-0.0153,-7.9268,-9.0854,5.5488
1595878871,0.4893,0.9901,-0.0135,-7.8659,-12.2561,6.0366
1595878871,0.4820,0.9841,-0.0048,-8.2317,-14.9390,6.2805
1595878871,0.5130,0.9874,-0.0064,-8.4146,-18.0488,6.5244
1595878871,0.5089,0.9922,-0.0068,-8.2317,-21.4634,7.3780
1595878871,0.4738,0.9847,-0.0336,-9.0854,-23.6585,7.5000
1595878871,0.4464,1.0054,-0.0704,-8.7195,-24.3293,7.8049
1595878871,0.4466,1.0344,-0.0856,-6.5854,-27.5610,9.8171
1595878871,0.4478,1.0383,-0.0933,-5.1220,-31.7073,12.8659
1595878871,0.4265,1.0558,-0.1016,-3.1707,-35.0000,16.4024
1595878871,0.4292,1.0775,-0.1060,0.0610,-38.4146,20.8537
1595878871,0.4630,1.0687,-0.1222,1.7073,-40.6707,25.9756
1595878871,0.4993,1.0588,-0.1244,2.8049,-40.1220,30.0610
1595878871,0.4962,1.0586,-0.1231,4.3902,-37.3171,32.9268
1595878871,0.4869,1.0698,-0.1312,4.7561,-31.9512,33.8415
1595878871,0.4574,1.1102,-0.1276,5.3659,-25.2439,33.6585
1595878871,0.4166,1.1268,-0.1194,7.1341,-20.6707,35.0000
1595878871,0.3953,1.1104,-0.1059,8.4756,-20.7317,35.7927
1595878871,0.3835,1.0875,-0.0953,9.2683,-24.5732,36.5854
1595878871,0.3883,1.0622,-0.0945,10.3659,-30.3659,38.5976
1595878871,0.3945,1.0457,-0.1169,11.6463,-37.8049,41.0976
1595878871,0.4194,1.0378,-0.1583,14.2683,-46.2195,42.9878
1595878872,0.4974,1.0222,-0.2214,17.0122,-53.4146,43.6585
1595878872,0.6273,0.9978,-0.2572,19.5732,-56.3415,42.3780
1595878872,0.6186,0.9893,-0.2250,23.1098,-55.3049,38.7195
1595878872,0.4946,0.9529,-0.1986,22.7439,-48.3537,32.9878
1595878872,0.4153,0.9190,-0.1782,18.9024,-35.6098,23.1707
1595878872,0.4062,0.9276,-0.1571,15.8537,-28.8415,15.0610
1595878872,0.4366,0.9297,-0.1194,14.0854,-31.4634,11.1585
1595878872,0.4560,0.9108,-0.0822,9.8780,-37.6220,7.0732
1595878872,0.4512,0.8766,-0.0684,4.8780,-41.8902,1.8293
1595878872,0.4709,0.8441,-0.0862,1.0976,-43.9024,-3.5976
1595878872,0.5202,0.8138,-0.1046,-1.5244,-46.6463,-8.6585
1595878872,0.5676,0.7849,-0.1200,-3.9634,-52.0122,-13.5366
1595878872,0.5833,0.7568,-0.1235,-6.0976,-56.4634,-19.4512
1595878872,0.5610,0.7356,-0.1265,-8.4146,-58.6585,-26.7073
1595878872,0.5596,0.7351,-0.1313,-10.3049,-60.1829,-34.2073
1595878872,0.5743,0.7679,-0.1187,-12.0732,-64.6951,-41.0366
1595878872,0.5876,0.8113,-0.0983,-13.6585,-72.7439,-45.5488
1595878872,0.6061,0.8221,-0.0806,-16.2195,-81.7073,-49.2683
1595878872,0.6337,0.8151,-0.0694,-20.1829,-89.7561,-52.7439
1595878872,0.6583,0.8118,-0.0663,-24.2073,-94.6341,-55.1220
1595878872,0.6741,0.8253,-0.0693,-27.8659,-95.4268,-56.0976
1595878872,0.7178,0.8483,-0.0738,-31.1585,-94.5122,-56.2805
1595878872,0.8004,0.8652,-0.0812,-34.7561,-93.0488,-55.3049
1595878872,0.8497,0.8743,-0.0916,-38.5976,-88.5976,-52.3781
1595878872,0.8477,0.8956,-0.0935,-41.8902,-79.5732,-47.5000
1595878872,0.8311,0.9303,-0.1028,-45.0000,-67.1951,-42.8049
1595878872,0.8103,0.9431,-0.1265,-47.9268,-54.7561,-38.5976
1595878872,0.7928,0.9308,-0.1418,-50.6707,-45.3049,-33.7195
1595878872,0.7787,0.9158,-0.1442,-53.9634,-36.7073,-29.2073
1595878872,0.7796,0.9083,-0.1335,-57.3171,-27.3171,-25.5488
1595878872,0.7872,0.9045,-0.1205,-60.9146,-16.4634,-23.0488
1595878872,0.7717,0.9122,-0.1110,-64.4512,-4.9390,-20.0610
1595878872,0.7492,0.9175,-0.0911,-67.0732,5.6707,-17.0732
1595878872,0.7180,0.9089,-0.0657,-69.4512,14.6951,-15.8537
1595878872,0.6931,0.8936,-0.0381,-72.9268,21.4024,-14.9390
1595878872,0.6893,0.8894,-0.0102,-77.3781,24.5732,-13.3537
1595878872,0.6779,0.9197,0.0283,-81.8293,24.6341,-11.9512
1595878872,0.6473,0.9559,0.0529,-85.3049,22.0732,-11.0366
1595878872,0.5991,0.9653,0.0598,-88.5976,17.8659,-11.3415
1595878872,0.5536,0.9440,0.0601,-93.2927,11.1585,-10.7927
1595878872,0.5275,0.9191,0.0512,-98.1098,2.0122,-9.9390
1595878872,0.5281,0.8962,0.0396,-101.2195,-8.2317,-9.6341
1595878872,0.5324,0.8698,0.0204,-104.0854,-18.2927,-9.0244
1595878872,0.5168,0.8508,0.0039,-106.1585,-27.7439,-7.7439
1595878872,0.4958,0.8453,-0.0060,-107.2561,-36.5854,-6.5244
1595878872,0.4875,0.8471,-0.0129,-107.4390,-45.3659,-6.0976
1595878872,0.4935,0.8430,-0.0093,-107.5610,-54.3293,-6.1585
1595878872,0.4980,0.8320,0.0010,-107.3781,-62.5000,-5.7927
1595878872,0.5014,0.8227,0.0159,-107.0122,-68.9024,-5.3659
1595878872,0.5040,0.8188,0.0237,-106.5854,-72.5000,-5.1220
1595878872,0.5093,0.8075,0.0303,-105.8537,-73.9024,-4.7561
1595878872,0.5184,0.7880,0.0339,-105.0000,-74.6341,-5.0000
1595878872,0.5233,0.7679,0.0355,-104.3293,-74.9390,-5.6098
1595878872,0.5341,0.7490,0.0291,-103.0488,-74.3293,-5.3659
1595878872,0.5441,0.7403,0.0233,-101.0366,-72.8659,-4.8780
1595878872,0.5464,0.7413,0.0199,-98.2317,-71.8902,-5.3049
1595878872,0.5448,0.7625,0.0184,-95.6098,-71.5854,-5.6098
1595878872,0.5427,0.7780,0.0216,-93.0488,-70.3659,-6.0976
1595878872,0.5432,0.7722,0.0173,-90.1829,-68.1707,-6.7073
1595878872,0.5355,0.7504,0.0125,-86.8902,-65.3049,-7.2561
1595878872,0.5276,0.7319,0.0054,-83.2927,-62.2561,-7.4390
1595878872,0.5292,0.7183,0.0056,-79.3293,-59.3293,-7.6220
1595878872,0.5318,0.7156,0.0071,-75.2439,-56.8293,-7.8659
1595878872,0.5424,0.7219,0.0143,-71.0976,-54.6951,-8.2927
1595878872,0.5616,0.7236,0.0275,-66.8902,-52.9268,-8.8415
1595878872,0.5722,0.7283,0.0370,-62.8659,-50.6707,-9.2073
1595878872,0.5768,0.7447,0.0488,-58.9024,-47.5610,-9.4512
1595878872,0.5997,0.7538,0.0520,-54.9390,-43.6585,-9.9390
1595878872,0.6271,0.7537,0.0519,-51.3415,-39.0244,-10.1220
1595878872,0.6296,0.7513,0.0607,-47.1341,-35.6707,-9.7561
1595878872,0.6266,0.7505,0.0759,-43.2927,-32.8049,-9.5122
1595878872,0.6345,0.7596,0.0898,-39.9390,-29.2683,-9.2073
1595878872,0.6317,0.7641,0.1033,-36.9512,-25.4878,-8.7195
1595878872,0.6240,0.7612,0.1087,-34.0244,-20.9756,-7.9878
1595878872,0.6151,0.7561,0.1152,-31.1585,-16.6463,-7.0122
1595878872,0.6163,0.7540,0.1268,-27.9268,-14.3293,-6.1585
1595878872,0.6193,0.7553,0.1343,-25.1220,-13.4146,-5.1829
1595878872,0.6162,0.7581,0.1394,-22.8659,-12.6220,-3.7195
1595878872,0.6089,0.7596,0.1415,-20.6098,-11.6463,-2.5610
1595878872,0.6028,0.7548,0.1387,-17.8049,-11.4024,-1.3415
1595878872,0.6075,0.7540,0.1441,-14.8780,-12.8049,-0.3659
1595878872,0.6167,0.7599,0.1481,-12.6220,-15.5488,0.6098
1595878872,0.6227,0.7706,0.1557,-10.3049,-17.5000,1.5244
1595878872,0.6307,0.7645,0.1622,-7.7439,-18.9634,1.9512
1595878872,0.6381,0.7527,0.1706,-6.2195,-19.3293,1.9512
1595878872,0.6423,0.7566,0.1805,-4.5732,-18.6585,2.2561
1595878872,0.6380,0.7731,0.1872,-2.9268,-16.8293,2.8049
1595878872,0.6292,0.7818,0.1910,-1.5854,-14.6341,3.0488
1595878872,0.6230,0.7803,0.1954,-0.4268,-12.8659,3.4146
1595878872,0.6227,0.7856,0.2053,0.4878,-11.5854,3.6585
1595878872,0.6248,0.8001,0.2131,1.4634,-10.3049,4.0244
1595878873,0.6248,0.8190,0.2222,2.1951,-8.5366,4.3902
1595878873,0.6210,0.8310,0.2296,2.9878,-6.7073,4.6341
1595878873,0.6220,0.8342,0.2369,3.7195,-5.1220,5.0000
1595878873,0.6190,0.8394,0.2431,3.9634,-3.3537,5.3659
1595878873,0.6094,0.8514,0.2482,4.2073,-1.1585,5.7927
1595878873,0.5980,0.8690,0.2547,4.5122,1.6463,6.2195
1595878873,0.5935,0.8870,0.2632,4.6341,3.9634,6.6463
1595878873,0.5887,0.8940,0.2687,3.7805,6.0976,6.8902
1595878873,0.5733,0.8911,0.2689,2.5610,8.8415,7.0732
1595878873,0.5554,0.8910,0.2696,2.0732,11.1585,7.1951
1595878873,0.5420,0.8918,0.2769,1.8293,12.0732,7.2561
1595878873,0.5376,0.8892,0.2855,0.4268,11.8293,6.9512
1595878873,0.5317,0.8819,0.2925,-1.6463,11.7683,6.4024
1595878873,0.5209,0.8763,0.2993,-3.3537,12.8049,5.5488
1595878873,0.5076,0.8737,0.3024,-4.6341,14.5732,4.3902
1595878873,0.4942,0.8748,0.3066,-6.0976,16.2195,2.9268
1595878873,0.4813,0.8815,0.3078,-7.6829,16.3415,1.2195
1595878873,0.4659,0.8833,0.3055,-8.8415,14.8171,-0.2439
1595878873,0.4596,0.8822,0.3024,-10.2439,11.8902,-1.7073
1595878873,0.4611,0.8809,0.2960,-11.8293,8.1707,-3.4756
1595878873,0.4623,0.8821,0.2945,-12.8659,3.5976,-5.4268
1595878873,0.4712,0.8846,0.2999,-13.8415,-1.3415,-7.4390
1595878873,0.4828,0.8904,0.3055,-15.0000,-5.2439,-9.5732
1595878873,0.4898,0.8976,0.3121,-15.9756,-7.4390,-11.8293
1595878873,0.4902,0.9038,0.3180,-16.7683,-8.3537,-14.2683
