time,ax,ay,az,gx,gy,gz
1595878848,-0.5193,0.8600,0.1575,-0.3049,0.0610,-0.1829
1595878848,-0.5233,0.8681,0.1592,-0.2439,0.0610,-0.1829
1595878848,-0.5215,0.8661,0.1592,-0.3049,-0.0610,-0.1220
1595878848,-0.5192,0.8683,0.1583,-0.3049,-0.0610,0.0610
1595878848,-0.5198,0.8660,0.1572,-0.1829,0.0610,0.0610
1595878848,-0.5214,0.8659,0.1591,-0.2439,0.0000,0.0610
1595878848,-0.5204,0.8675,0.1571,-0.2439,0.0000,-0.0610
1595878848,-0.5215,0.8660,0.1593,-0.3659,0.0610,-0.1220
1595878848,-0.5219,0.8660,0.1605,-0.2439,0.0610,-0.1829
1595878848,-0.5223,0.8640,0.1597,-0.3049,0.0000,-0.1829
1595878848,-0.5217,0.8661,0.1575,-0.3659,0.0000,-0.1220
1595878848,-0.5217,0.8661,0.1581,-0.1829,0.0000,-0.0610
1595878848,-0.5223,0.8663,0.1589,-0.2439,-0.0610,-0.0610
1595878848,-0.5220,0.8681,0.1575,-0.1829,0.0000,-0.0610
1595878848,-0.5224,0.8653,0.1587,-0.1829,0.0610,-0.1220
1595878848,-0.5215,0.8666,0.1569,-0.1829,0.0000,-0.1220
1595878848,-0.5219,0.8648,0.1583,-0.1220,0.0000,-0.0610
1595878848,-0.5209,0.8656,0.1595,-0.3049,0.0000,-0.0610
1595878848,-0.5214,0.8684,0.1570,-0.3659,0.0000,0.0000
1595878848,-0.5209,0.8658,0.1583,-0.2439,-0.0610,-0.1829
1595878848,-0.5200,0.8658,0.1580,-0.2439,0.0000,-0.1829
1595878848,-0.5211,0.8658,0.1593,-0.2439,-0.0610,-0.1829
1595878848,-0.5213,0.8661,0.1597,-0.2439,-0.0610,-0.1220
1595878848,-0.5217,0.8663,0.1584,-0.1829,0.0610,-0.0610
1595878848,-0.5226,0.8668,0.1576,-0.2439,-0.0610,0.0610
1595878848,-0.5208,0.8669,0.1582,-0.2439,-0.0610,0.0610
1595878848,-0.5211,0.8668,0.1586,-0.2439,0.0000,0.0000
1595878848,-0.5202,0.8647,0.1588,-0.2439,-0.0610,-0.1220
1595878848,-0.5209,0.8665,0.1580,-0.2439,-0.0610,-0.3049
1595878848,-0.5231,0.8666,0.1606,-0.3049,0.0610,-0.3049
1595878848,-0.5217,0.8667,0.1606,-0.3049,0.0000,-0.1829
1595878848,-0.5214,0.8677,0.1590,-0.1829,0.0000,0.0000
1595878848,-0.5233,0.8669,0.1567,-0.1829,0.0000,0.1220
1595878848,-0.5200,0.8687,0.1597,-0.2439,-0.0610,0.0610
1595878848,-0.5207,0.8680,0.1609,-0.2439,-0.0610,-0.1220
1595878848,-0.5212,0.8661,0.1581,-0.3049,0.0610,-0.1829
1595878848,-0.5208,0.8656,0.1572,-0.3049,-0.0610,-0.1829
1595878848,-0.5220,0.8658,0.1583,-0.2439,0.0000,-0.2439
1595878848,-0.5217,0.8653,0.1575,-0.3659,0.0000,-0.1220
1595878848,-0.5224,0.8666,0.1586,-0.2439,0.0000,0.0000
1595878848,-0.5211,0.8665,0.1584,-0.2439,-0.0610,0.0000
1595878848,-0.5224,0.8681,0.1580,-0.3049,-0.1220,0.0000
1595878848,-0.5210,0.8665,0.1579,-0.3049,-0.1220,-0.0610
1595878848,-0.5218,0.8658,0.1595,-0.2439,-0.1220,-0.1220
1595878848,-0.5218,0.8663,0.1581,-0.3049,-0.0610,0.0000
1595878848,-0.5225,0.8657,0.1602,-0.2439,0.0000,-0.1220
1595878848,-0.5214,0.8658,0.1597,-0.2439,0.0000,-0.2439
1595878848,-0.5218,0.8661,0.1587,-0.3049,-0.0610,-0.1220
1595878848,-0.5238,0.8663,0.1566,-0.1829,-0.0610,-0.1829
1595878848,-0.5210,0.8655,0.1603,-0.1829,-0.0610,-0.1829
1595878848,-0.5204,0.8680,0.1606,-0.3049,-0.0610,-0.1220
1595878848,-0.5201,0.8687,0.1594,-0.2439,-0.1220,0.0610
1595878848,-0.5206,0.8680,0.1598,-0.2439,-0.0610,0.0610
1595878848,-0.5221,0.8663,0.1589,-0.3659,0.0000,0.0610
1595878848,-0.5212,0.8663,0.1592,-0.3049,0.0000,-0.0610
1595878848,-0.5208,0.8660,0.1580,-0.3659,-0.0610,-0.2439
1595878848,-0.5203,0.8659,0.1598,-0.3049,0.0610,-0.3049
1595878848,-0.5226,0.8668,0.1606,-0.3049,0.0000,-0.2439
1595878848,-0.5219,0.8657,0.1586,-0.3049,0.0000,-0.1220
1595878849,-0.5217,0.8679,0.1579,-0.3049,0.0000,-0.1220
1595878849,-0.5213,0.8649,0.1577,-0.3049,-0.0610,0.0000
1595878849,-0.5217,0.8663,0.1605,-0.2439,-0.0610,0.1220
1595878849,-0.5221,0.8668,0.1608,-0.2439,0.0000,0.0000
1595878849,-0.5217,0.8662,0.1577,-0.2439,0.0000,-0.0610
1595878849,-0.5195,0.8647,0.1586,-0.2439,0.0610,-0.1220
1595878849,-0.5215,0.8638,0.1603,-0.2439,0.0610,-0.1220
1595878849,-0.5214,0.8630,0.1614,-0.3049,0.0000,-0.1220
1595878849,-0.5217,0.8647,0.1584,-0.2439,0.0000,-0.1220
1595878849,-0.5211,0.8658,0.1596,-0.1220,0.0000,-0.0610
1595878849,-0.5229,0.8660,0.1588,-0.2439,-0.0610,-0.1220
1595878849,-0.5229,0.8636,0.1556,-0.3049,-0.1220,-0.1220
1595878849,-0.5224,0.8652,0.1567,-0.3049,-0.0610,-0.1220
1595878849,-0.5215,0.8666,0.1575,-0.3659,0.0000,0.0000
1595878849,-0.5215,0.8659,0.1591,-0.4268,-0.0610,0.0000
1595878849,-0.5209,0.8658,0.1585,-0.3049,-0.0610,-0.0610
1595878849,-0.5224,0.8658,0.1591,-0.2439,-0.0610,-0.0610
1595878849,-0.5201,0.8648,0.1583,-0.3049,-0.0610,-0.2439
1595878849,-0.5215,0.8651,0.1595,-0.1829,0.0000,-0.3049
1595878849,-0.5204,0.8644,0.1577,-0.2439,0.0610,-0.2439
1595878849,-0.5198,0.8646,0.1602,-0.2439,-0.0610,-0.1829
1595878849,-0.5216,0.8657,0.1606,-0.3049,-0.0610,0.0610
1595878849,-0.5230,0.8677,0.1590,-0.2439,-0.0610,0.1220
1595878849,-0.5221,0.8661,0.1589,-0.1829,0.0000,0.1220
1595878849,-0.5226,0.8654,0.1616,-0.2439,-0.0610,0.0000
1595878849,-0.5215,0.8650,0.1615,-0.2439,-0.0610,-0.1220
1595878849,-0.5217,0.8647,0.1572,-0.3049,0.0610,-0.2439
1595878849,-0.5227,0.8644,0.1605,-0.3049,0.0610,-0.3049
1595878849,-0.5222,0.8653,0.1597,-0.2439,-0.0610,-0.3049
1595878849,-0.5224,0.8666,0.1588,-0.2439,0.0000,-0.0610
1595878849,-0.5203,0.8658,0.1597,-0.2439,-0.0610,0.0000
1595878849,-0.5218,0.8682,0.1604,-0.1829,-0.0610,0.1220
1595878849,-0.5228,0.8676,0.1586,-0.2439,0.0000,0.0000
1595878849,-0.5211,0.8665,0.1600,-0.2439,0.0000,-0.0610
1595878849,-0.5220,0.8655,0.1603,-0.1829,-0.0610,-0.0610
1595878849,-0.5223,0.8660,0.1576,-0.2439,-0.0610,-0.1829
1595878849,-0.5229,0.8664,0.1586,-0.3049,0.0610,-0.2439
1595878849,-0.5227,0.8679,0.1584,-0.3049,0.0610,-0.3049
1595878849,-0.5220,0.8658,0.1581,-0.2439,-0.0610,-0.1829
1595878849,-0.5228,0.8665,0.1596,-0.3049,-0.1220,-0.1829
1595878849,-0.5218,0.8661,0.1597,-0.2439,0.0610,-0.0610
1595878849,-0.5200,0.8666,0.1595,-0.2439,0.0000,0.0610
1595878849,-0.5200,0.8667,0.1578,-0.3049,-0.0610,0.1220
1595878849,-0.5214,0.8666,0.1599,-0.3049,-0.0610,0.1220
1595878849,-0.5212,0.8667,0.1604,-0.3049,-0.0610,0.0000
1595878849,-0.5212,0.8670,0.1584,-0.2439,0.0000,-0.1220
1595878849,-0.5220,0.8672,0.1591,-0.3049,0.0610,-0.2439
1595878849,-0.5229,0.8652,0.1584,-0.2439,0.0610,-0.3049
1595878849,-0.5192,0.8656,0.1577,-0.2439,0.0610,-0.3049
1595878849,-0.5194,0.8655,0.1578,-0.2439,-0.0610,-0.1220
1595878849,-0.5217,0.8646,0.1598,-0.2439,0.0000,0.0610
1595878849,-0.5222,0.8646,0.1594,-0.2439,0.0000,0.1829
1595878849,-0.5192,0.8668,0.1577,-0.2439,0.0000,0.0610
1595878849,-0.5178,0.8661,0.1599,-0.3049,0.0000,-0.0610
1595878849,-0.5210,0.8676,0.1583,-0.3049,-0.0610,-0.1220
1595878849,-0.5243,0.8665,0.1627,-0.2439,0.0000,-0.1220
1595878849,-0.5208,0.8651,0.1612,-0.3659,-0.0610,-0.2439
1595878849,-0.5212,0.8660,0.1604,-0.3049,0.0000,-0.2439
1595878849,-0.5228,0.8671,0.1600,-0.3049,0.0000,-0.2439
1595878849,-0.5212,0.8671,0.1605,-0.3049,-0.0610,-0.1829
1595878849,-0.5196,0.8657,0.1610,-0.3049,-0.0610,-0.0610
1595878849,-0.5223,0.8652,0.1607,-0.2439,0.0000,0.0000
1595878849,-0.5213,0.8678,0.1608,-0.3049,0.0000,0.0610
1595878849,-0.5201,0.8675,0.1574,-0.3049,-0.0610,0.1220
1595878849,-0.5221,0.8666,0.1600,-0.2439,0.0000,0.0000
1595878849,-0.5212,0.8677,0.1589,-0.1829,-0.0610,-0.1220
1595878849,-0.5225,0.8653,0.1580,-0.3049,-0.0610,-0.3049
1595878849,-0.5207,0.8647,0.1598,-0.4268,0.0000,-0.3049
1595878849,-0.5217,0.8654,0.1596,-0.2439,0.0610,-0.3659
1595878849,-0.5229,0.8644,0.1591,-0.2439,0.0000,-0.1220
1595878849,-0.5197,0.8669,0.1592,-0.2439,0.0000,0.0000
1595878849,-0.5214,0.8669,0.1617,-0.3049,-0.1220,0.1829
1595878849,-0.5209,0.8672,0.1608,-0.2439,0.0000,0.1220
1595878849,-0.5205,0.8679,0.1594,-0.1220,-0.0610,0.0610
1595878849,-0.5212,0.8687,0.1586,-0.2439,-0.0610,0.0000
1595878849,-0.5219,0.8662,0.1613,-0.2439,0.0000,-0.1220
1595878849,-0.5225,0.8676,0.1604,-0.2439,0.0610,-0.1829
1595878849,-0.5205,0.8669,0.1591,-0.1829,0.1220,-0.2439
1595878849,-0.5227,0.8652,0.1582,-0.2439,0.0610,-0.2439
1595878849,-0.5212,0.8666,0.1602,-0.3049,0.0000,-0.1829
1595878849,-0.5211,0.8638,0.1598,-0.3049,0.0000,-0.0610
1595878849,-0.5213,0.8681,0.1602,-0.1829,0.0000,-0.0610
1595878849,-0.5218,0.8666,0.1599,-0.3049,0.0000,-0.1220
1595878849,-0.5206,0.8643,0.1588,-0.3659,-0.0610,0.0000
1595878849,-0.5237,0.8647,0.1608,-0.2439,-0.0610,0.1220
1595878849,-0.5226,0.8647,0.1592,-0.2439,-0.0610,0.0000
1595878849,-0.5203,0.8649,0.1594,-0.1829,0.0000,0.0000
1595878849,-0.5215,0.8657,0.1594,-0.3659,0.0610,-0.0610
1595878849,-0.5223,0.8660,0.1591,-0.2439,0.0000,-0.1829
1595878849,-0.5203,0.8674,0.1598,-0.3049,0.0000,-0.1829
1595878849,-0.5208,0.8666,0.1602,-0.3049,0.0610,-0.2439
1595878849,-0.5215,0.8647,0.1589,-0.1829,0.0000,-0.2439
1595878849,-0.5214,0.8655,0.1596,-0.3049,-0.0610,0.0000
1595878849,-0.5219,0.8663,0.1586,-0.2439,-0.1220,0.1220
1595878849,-0.5219,0.8677,0.1590,-0.2439,-0.0610,0.0610
1595878849,-0.5232,0.8655,0.1593,-0.3049,-0.0610,0.0610
1595878849,-0.5215,0.8662,0.1583,-0.1829,0.0000,0.0000
1595878849,-0.5201,0.8652,0.1588,-0.2439,-0.0610,-0.0610
1595878849,-0.5231,0.8664,0.1594,-0.3049,0.0000,-0.1220
1595878849,-0.5230,0.8644,0.1595,-0.3049,-0.0610,-0.1829
1595878849,-0.5224,0.8665,0.1614,-0.3049,0.0610,-0.2439
1595878849,-0.5237,0.8655,0.1594,-0.3049,0.0000,-0.2439
1595878850,-0.5221,0.8653,0.1599,-0.3049,0.0000,-0.1220
1595878850,-0.5200,0.8654,0.1596,-0.3049,-0.0610,-0.1220
1595878850,-0.5210,0.8661,0.1594,-0.2439,0.0000,-0.0610
1595878850,-0.5226,0.8660,0.1588,-0.3049,-0.0610,0.0610
1595878850,-0.5214,0.8658,0.1583,-0.3049,-0.0610,0.0000
1595878850,-0.5222,0.8664,0.1606,-0.1829,0.0610,0.0610
1595878850,-0.5190,0.8665,0.1589,-0.2439,0.0000,0.0000
1595878850,-0.5224,0.8658,0.1601,-0.3049,-0.0610,-0.1829
1595878850,-0.5222,0.8654,0.1600,-0.3049,0.0000,-0.3659
1595878850,-0.5214,0.8684,0.1596,-0.2439,0.0610,-0.3049
1595878850,-0.5226,0.8651,0.1622,-0.2439,0.0610,-0.3049
1595878850,-0.5217,0.8644,0.1599,-0.2439,0.0000,-0.1829
1595878850,-0.5214,0.8661,0.1591,-0.3049,0.0000,0.0000
1595878850,-0.5193,0.8663,0.1580,-0.2439,-0.0610,0.1829
1595878850,-0.5185,0.8660,0.1596,-0.2439,0.0000,0.2439
1595878850,-0.5200,0.8666,0.1609,-0.3049,0.0000,0.1829
1595878850,-0.5217,0.8668,0.1608,-0.3049,0.0000,0.1220
1595878850,-0.5203,0.8661,0.1623,-0.3049,-0.0610,-0.0610
1595878850,-0.5228,0.8661,0.1618,-0.1829,-0.0610,-0.2439
1595878850,-0.5223,0.8665,0.1597,-0.3049,0.0610,-0.3659
1595878850,-0.5216,0.8646,0.1589,-0.3659,0.0610,-0.3659
1595878850,-0.5215,0.8666,0.1611,-0.3659,0.0000,-0.3049
1595878850,-0.5220,0.8679,0.1613,-0.2439,0.0610,-0.0610
1595878850,-0.5227,0.8646,0.1580,-0.2439,-0.0610,0.1220
1595878850,-0.5205,0.8660,0.1588,-0.2439,-0.0610,0.1829
1595878850,-0.5205,0.8677,0.1579,-0.3659,-0.0610,0.1829
1595878850,-0.5206,0.8658,0.1595,-0.1829,-0.0610,0.1220
1595878850,-0.5220,0.8657,0.1591,-0.1829,0.0610,-0.0610
1595878850,-0.5225,0.8674,0.1574,-0.1829,0.0000,-0.2439
1595878850,-0.5216,0.8653,0.1602,-0.2439,0.0000,-0.3659
1595878850,-0.5233,0.8633,0.1604,-0.3049,0.0610,-0.3049
1595878850,-0.5220,0.8652,0.1600,-0.2439,0.0000,-0.2439
1595878850,-0.5230,0.8657,0.1597,-0.2439,0.0000,-0.1220
1595878850,-0.5212,0.8655,0.1603,-0.2439,0.0000,0.0000
1595878850,-0.5228,0.8678,0.1605,-0.2439,0.0610,0.0610
1595878850,-0.5212,0.8682,0.1603,-0.3049,-0.0610,0.1220
1595878850,-0.5201,0.8661,0.1597,-0.1829,-0.0610,0.1220
1595878850,-0.5234,0.8655,0.1609,-0.1829,-0.1220,0.0610
1595878850,-0.5207,0.8659,0.1600,-0.2439,0.0000,0.0000
1595878850,-0.5210,0.8664,0.1600,-0.3049,0.0610,-0.1220
1595878850,-0.5219,0.8661,0.1592,-0.3049,0.0000,-0.4268
1595878850,-0.5226,0.8653,0.1617,-0.3049,0.0000,-0.3659
1595878850,-0.5209,0.8672,0.1621,-0.3049,0.0000,-0.3659
1595878850,-0.5226,0.8656,0.1586,-0.2439,0.0000,-0.1829
1595878850,-0.5221,0.8671,0.1605,-0.1829,-0.0610,0.0610
1595878850,-0.5201,0.8671,0.1597,-0.1829,-0.1829,0.1829
1595878850,-0.5208,0.8652,0.1601,-0.1829,0.0000,0.2439
1595878850,-0.5208,0.8661,0.1613,-0.1829,0.0000,0.1829
1595878850,-0.5211,0.8675,0.1580,-0.1829,-0.0610,-0.0610
1595878850,-0.5190,0.8643,0.1603,-0.2439,0.0000,-0.2439
1595878850,-0.5226,0.8661,0.1579,-0.3049,-0.0610,-0.3659
1595878850,-0.5227,0.8655,0.1599,-0.3659,0.0610,-0.4268
1595878850,-0.5229,0.8647,0.1617,-0.3049,0.0610,-0.3049
1595878850,-0.5230,0.8651,0.1609,-0.2439,-0.1220,-0.1220
1595878850,-0.5191,0.8660,0.1604,-0.2439,0.0000,0.0610
1595878850,-0.5222,0.8677,0.1619,-0.3049,0.0000,0.1829
1595878850,-0.5226,0.8662,0.1627,-0.2439,-0.0610,0.1829
1595878850,-0.5200,0.8636,0.1595,-0.3049,-0.0610,0.0000
1595878850,-0.5207,0.8660,0.1580,-0.3049,0.0000,-0.0610
1595878850,-0.5233,0.8668,0.1614,-0.2439,0.0610,-0.1829
1595878850,-0.5209,0.8667,0.1588,-0.2439,0.0000,-0.2439
1595878850,-0.5224,0.8647,0.1599,-0.1829,0.0000,-0.2439
1595878850,-0.5240,0.8652,0.1608,-0.3049,-0.0610,-0.3049
1595878850,-0.5233,0.8661,0.1592,-0.3659,-0.1220,-0.2439
1595878850,-0.5224,0.8651,0.1603,-0.1829,0.0610,-0.0610
1595878850,-0.5215,0.8647,0.1605,-0.3049,0.0000,-0.0610
1595878850,-0.5198,0.8652,0.1585,-0.2439,-0.0610,0.0000
1595878850,-0.5215,0.8664,0.1587,-0.1829,0.0000,0.0610
1595878850,-0.5228,0.8671,0.1581,-0.2439,-0.0610,0.1220
1595878850,-0.5236,0.8672,0.1597,-0.2439,-0.0610,0.0000
1595878850,-0.5200,0.8680,0.1582,-0.3659,-0.0610,-0.1220
1595878850,-0.5215,0.8663,0.1584,-0.2439,-0.0610,-0.1829
1595878850,-0.5221,0.8659,0.1585,-0.3049,0.0000,-0.2439
1595878850,-0.5227,0.8671,0.1592,-0.3049,0.0000,-0.3049
1595878850,-0.5219,0.8655,0.1613,-0.3049,0.0000,-0.1829
1595878850,-0.5215,0.8666,0.1580,-0.3049,0.0000,-0.1220
1595878850,-0.5221,0.8672,0.1592,-0.3049,-0.1220,-0.0610
1595878850,-0.5220,0.8653,0.1619,-0.3659,-0.1220,0.1220
1595878850,-0.5198,0.8671,0.1602,-0.3049,-0.0610,0.1220
1595878850,-0.5200,0.8681,0.1595,-0.1829,-0.0610,0.1220
1595878850,-0.5206,0.8654,0.1607,-0.2439,-0.0610,0.0610
1595878850,-0.5205,0.8662,0.1585,-0.1829,-0.0610,-0.0610
1595878850,-0.5230,0.8654,0.1580,-0.3049,0.0000,-0.2439
1595878850,-0.5229,0.8659,0.1584,-0.3049,0.1220,-0.4268
1595878850,-0.5225,0.8653,0.1577,-0.3049,0.0000,-0.4268
1595878850,-0.5196,0.8636,0.1588,-0.3049,0.0000,-0.2439
1595878850,-0.5234,0.8667,0.1586,-0.2439,0.0000,-0.0610
1595878850,-0.5240,0.8663,0.1608,-0.1829,0.0000,0.2439
1595878850,-0.5203,0.8661,0.1604,-0.1220,-0.0610,0.4268
1595878850,-0.5217,0.8654,0.1606,-0.2439,-0.1220,0.3049
1595878850,-0.5214,0.8658,0.1587,-0.1829,-0.1220,0.1220
1595878850,-0.5181,0.8645,0.1585,-0.1829,0.0000,-0.2439
1595878850,-0.5215,0.8650,0.1602,-0.2439,0.0000,-0.4878
1595878850,-0.5219,0.8677,0.1599,-0.3049,0.0000,-0.4268
1595878850,-0.5198,0.8682,0.1612,-0.2439,0.0000,-0.4268
1595878850,-0.5222,0.8632,0.1599,-0.2439,0.0000,-0.1829
1595878850,-0.5225,0.8641,0.1591,-0.2439,0.0000,0.0610
1595878850,-0.5215,0.8664,0.1617,-0.3049,0.0000,0.2439
1595878850,-0.5224,0.8661,0.1595,-0.1829,0.0000,0.1220
1595878850,-0.5214,0.8664,0.1611,-0.2439,-0.0610,0.0000
1595878850,-0.5220,0.8674,0.1625,-0.2439,-0.0610,0.0000
1595878851,-0.5219,0.8666,0.1626,-0.2439,0.0000,-0.1220
1595878851,-0.5230,0.8674,0.1591,-0.3049,0.0000,-0.1220
1595878851,-0.5203,0.8647,0.1613,-0.2439,-0.0610,-0.1220
1595878851,-0.5210,0.8651,0.1592,-0.3049,-0.0610,-0.1829
1595878851,-0.5228,0.8648,0.1580,-0.3049,0.0000,-0.2439
1595878851,-0.5226,0.8640,0.1592,-0.3049,-0.0610,-0.3049
1595878851,-0.5240,0.8645,0.1609,-0.2439,-0.0610,-0.1829
1595878851,-0.5217,0.8633,0.1606,-0.2439,0.0000,0.0610
1595878851,-0.5211,0.8673,0.1609,-0.2439,0.0000,0.1829
1595878851,-0.5218,0.8669,0.1620,-0.3659,-0.0610,0.2439
1595878851,-0.5204,0.8660,0.1579,-0.2439,-0.0610,0.1829
1595878851,-0.5204,0.8662,0.1600,-0.3049,0.0000,0.0000
1595878851,-0.5209,0.8663,0.1589,-0.2439,-0.0610,-0.1829
1595878851,-0.5225,0.8660,0.1613,-0.2439,0.0000,-0.3049
1595878851,-0.5222,0.8689,0.1628,-0.2439,0.0610,-0.3659
1595878851,-0.5212,0.8670,0.1603,-0.1829,0.0000,-0.3659
1595878851,-0.5208,0.8648,0.1584,-0.1829,-0.0610,-0.2439
1595878851,-0.5198,0.8666,0.1596,-0.3049,0.0000,0.0000
1595878851,-0.5198,0.8666,0.1600,-0.3049,-0.0610,0.1829
1595878851,-0.5218,0.8636,0.1588,-0.3049,-0.0610,0.2439
1595878851,-0.5215,0.8655,0.1589,-0.3659,0.0610,0.1829
1595878851,-0.5220,0.8661,0.1602,-0.3049,0.0000,0.0610
1595878851,-0.5210,0.8661,0.1606,-0.3659,-0.0610,-0.1829
1595878851,-0.5200,0.8647,0.1619,-0.3049,0.0000,-0.3049
1595878851,-0.5235,0.8641,0.1592,-0.2439,0.0610,-0.4268
1595878851,-0.5220,0.8636,0.1588,-0.2439,0.0000,-0.4268
1595878851,-0.5215,0.8643,0.1603,-0.3659,0.0000,-0.3049
1595878851,-0.5212,0.8638,0.1611,-0.3659,-0.0610,-0.1220
1595878851,-0.5210,0.8654,0.1592,-0.3049,-0.0610,0.1220
1595878851,-0.5222,0.8659,0.1626,-0.3659,0.0000,0.2439
1595878851,-0.5219,0.8671,0.1617,-0.2439,-0.0610,0.3049
1595878851,-0.5197,0.8676,0.1608,-0.2439,-0.0610,0.1829
1595878851,-0.5212,0.8658,0.1614,-0.2439,0.0000,-0.0610
1595878851,-0.5227,0.8674,0.1598,-0.2439,0.0610,-0.4268
1595878851,-0.5211,0.8624,0.1606,-0.3049,0.0610,-0.5488
1595878851,-0.5218,0.8622,0.1591,-0.3049,0.0000,-0.4268
1595878851,-0.5223,0.8649,0.1588,-0.3049,0.0000,-0.1829
1595878851,-0.5213,0.8651,0.1597,-0.2439,-0.0610,0.0610
1595878851,-0.5215,0.8664,0.1599,-0.2439,-0.1220,0.1829
1595878851,-0.5237,0.8666,0.1594,-0.2439,-0.1220,0.2439
1595878851,-0.5210,0.8652,0.1607,-0.1829,0.0000,0.1220
1595878851,-0.5195,0.8654,0.1588,-0.3049,-0.0610,0.0000
1595878851,-0.5203,0.8654,0.1614,-0.3049,0.0000,-0.1220
1595878851,-0.5220,0.8665,0.1597,-0.2439,0.0000,-0.1829
1595878851,-0.5225,0.8657,0.1608,-0.3049,-0.1220,-0.2439
1595878851,-0.5204,0.8657,0.1601,-0.3049,0.0610,-0.2439
1595878851,-0.5239,0.8638,0.1571,-0.4268,0.1220,-0.1829
1595878851,-0.5226,0.8660,0.1602,-0.2439,-0.0610,-0.1829
1595878851,-0.5223,0.8660,0.1619,-0.2439,0.0000,-0.0610
1595878851,-0.5206,0.8663,0.1589,-0.2439,0.0610,0.0000
1595878851,-0.5222,0.8639,0.1605,-0.2439,-0.1220,0.0000
1595878851,-0.5213,0.8647,0.1599,-0.2439,-0.0610,0.0000
1595878851,-0.5209,0.8666,0.1594,-0.2439,0.0000,0.0610
1595878851,-0.5218,0.8660,0.1594,-0.1829,0.0000,0.0000
1595878851,-0.5217,0.8647,0.1618,-0.3049,0.0610,-0.1829
1595878851,-0.5182,0.8663,0.1607,-0.3049,0.0610,-0.1829
1595878851,-0.5227,0.8662,0.1583,-0.2439,0.0000,-0.1829
1595878851,-0.5213,0.8658,0.1580,-0.3049,0.0000,-0.2439
1595878851,-0.5207,0.8674,0.1578,-0.2439,-0.0610,-0.1829
1595878851,-0.5209,0.8656,0.1595,-0.1829,-0.1829,-0.0610
1595878851,-0.5218,0.8658,0.1603,-0.1829,0.0000,0.1220
1595878851,-0.5206,0.8632,0.1582,-0.2439,-0.0610,0.0610
1595878851,-0.5204,0.8657,0.1597,-0.1829,-0.0610,0.0000
1595878851,-0.5208,0.8661,0.1620,-0.2439,-0.0610,0.0000
1595878851,-0.5222,0.8658,0.1601,-0.1829,-0.0610,-0.1220
1595878851,-0.5233,0.8655,0.1612,-0.3049,0.0000,-0.2439
1595878851,-0.5225,0.8667,0.1604,-0.3049,-0.0610,-0.3049
1595878851,-0.5258,0.8642,0.1611,-0.3049,0.0610,-0.3659
1595878851,-0.5244,0.8656,0.1609,-0.3049,0.0610,-0.2439
1595878851,-0.5242,0.8671,0.1586,-0.3049,-0.0610,-0.0610
1595878851,-0.5216,0.8663,0.1582,-0.2439,-0.0610,0.0610
1595878851,-0.5212,0.8683,0.1602,-0.3659,-0.0610,0.1829
1595878851,-0.5239,0.8680,0.1616,-0.3049,-0.0610,0.1829
1595878851,-0.5218,0.8680,0.1608,-0.3049,-0.0610,0.0000
1595878851,-0.5218,0.8663,0.1601,-0.2439,0.0000,-0.2439
1595878851,-0.5204,0.8646,0.1620,-0.2439,0.0610,-0.3659
1595878851,-0.5209,0.8647,0.1612,-0.1829,0.0000,-0.3049
1595878851,-0.5207,0.8655,0.1575,-0.3049,-0.0610,-0.3049
1595878851,-0.5199,0.8666,0.1584,-0.2439,-0.0610,-0.1220
1595878851,-0.5215,0.8662,0.1606,-0.2439,-0.0610,0.0610
1595878851,-0.5204,0.8644,0.1583,-0.2439,-0.1220,0.1829
1595878851,-0.5202,0.8652,0.1598,-0.2439,0.0000,0.0610
1595878851,-0.5191,0.8644,0.1602,-0.3049,-0.0610,0.0000
1595878851,-0.5207,0.8641,0.1588,-0.3049,-0.0610,-0.1220
1595878851,-0.5200,0.8652,0.1604,-0.3659,0.0000,-0.2439
1595878851,-0.5209,0.8655,0.1598,-0.2439,0.0000,-0.2439
1595878851,-0.5229,0.8655,0.1594,-0.2439,0.0610,-0.1220
1595878851,-0.5211,0.8658,0.1593,-0.3049,0.0000,-0.0610
1595878851,-0.5208,0.8661,0.1591,-0.2439,-0.1220,0.0000
1595878851,-0.5225,0.8665,0.1599,-0.2439,-0.0610,-0.1220
1595878851,-0.5221,0.8655,0.1593,-0.2439,-0.0610,-0.1220
1595878851,-0.5217,0.8656,0.1592,-0.2439,-0.0610,-0.1220
1595878851,-0.5204,0.8652,0.1592,-0.3049,-0.0610,-0.1829
1595878851,-0.5206,0.8653,0.1594,-0.3049,0.0000,-0.1220
1595878851,-0.5203,0.8666,0.1614,-0.3049,0.0000,-0.0610
1595878851,-0.5208,0.8656,0.1624,-0.3659,-0.0610,-0.1220
1595878851,-0.5221,0.8680,0.1578,-0.3049,0.0000,-0.1220
1595878851,-0.5235,0.8677,0.1603,-0.2439,0.0610,0.0000
1595878851,-0.5195,0.8665,0.1594,-0.2439,-0.0610,0.0000
1595878851,-0.5224,0.8654,0.1594,-0.2439,-0.0610,-0.1220
1595878851,-0.5214,0.8666,0.1600,-0.3659,-0.0610,-0.0610
1595878852,-0.5209,0.8673,0.1581,-0.3659,0.0000,-0.1220
1595878852,-0.5206,0.8652,0.1597,-0.3049,-0.0610,-0.0610
1595878852,-0.5206,0.8655,0.1592,-0.3049,0.0000,-0.0610
1595878852,-0.5212,0.8662,0.1581,-0.2439,0.0000,0.0000
1595878852,-0.5201,0.8657,0.1628,-0.2439,0.0610,0.0000
1595878852,-0.5202,0.8660,0.1616,-0.3049,0.0000,0.0610
1595878852,-0.5209,0.8665,0.1615,-0.1829,-0.0610,0.0000
1595878852,-0.5210,0.8661,0.1603,-0.1829,-0.0610,-0.1829
1595878852,-0.5221,0.8663,0.1602,-0.1829,0.0000,-0.2439
1595878852,-0.5200,0.8657,0.1586,-0.2439,0.0000,-0.2439
1595878852,-0.5225,0.8658,0.1583,-0.3049,0.0610,-0.1220
1595878852,-0.5224,0.8656,0.1584,-0.2439,-0.0610,0.0000
1595878852,-0.5220,0.8675,0.1599,-0.2439,-0.1220,0.0610
1595878852,-0.5212,0.8676,0.1584,-0.3659,0.0000,0.1829
1595878852,-0.5219,0.8666,0.1586,-0.3049,0.0610,0.0610
1595878852,-0.5215,0.8657,0.1592,-0.2439,0.0000,-0.1829
1595878852,-0.5220,0.8669,0.1599,-0.3049,0.0000,-0.2439
1595878852,-0.5219,0.8644,0.1606,-0.3049,0.0000,-0.1829
1595878852,-0.5206,0.8643,0.1594,-0.2439,-0.0610,-0.2439
1595878852,-0.5221,0.8634,0.1573,-0.1829,0.0000,-0.0610
1595878852,-0.5217,0.8652,0.1596,-0.1829,0.0000,0.0610
1595878852,-0.5204,0.8672,0.1614,-0.2439,-0.1220,0.1829
1595878852,-0.5206,0.8677,0.1600,-0.3049,-0.1220,0.1220
1595878852,-0.5216,0.8671,0.1610,-0.3049,-0.0610,-0.1220
1595878852,-0.5205,0.8658,0.1634,-0.2439,-0.0610,-0.2439
1595878852,-0.5214,0.8660,0.1584,-0.3049,0.0000,-0.3049
1595878852,-0.5223,0.8647,0.1599,-0.3049,0.0000,-0.1829
1595878852,-0.5215,0.8656,0.1594,-0.2439,-0.0610,-0.0610
1595878852,-0.5226,0.8680,0.1595,-0.3049,-0.0610,0.0610
1595878852,-0.5219,0.8679,0.1606,-0.2439,0.0000,0.1220
1595878852,-0.5215,0.8657,0.1586,-0.2439,0.0000,0.0000
1595878852,-0.5223,0.8651,0.1605,-0.3049,0.0000,-0.1220
1595878852,-0.5229,0.8649,0.1603,-0.3049,0.0610,-0.1220
1595878852,-0.5222,0.8662,0.1605,-0.2439,0.0000,-0.3049
1595878852,-0.5209,0.8636,0.1629,-0.1829,-0.0610,-0.1829
1595878852,-0.5220,0.8657,0.1600,-0.3049,-0.0610,-0.0610
1595878852,-0.5234,0.8659,0.1581,-0.3049,0.0000,0.0610
1595878852,-0.5233,0.8658,0.1595,-0.1829,-0.0610,0.0610
1595878852,-0.5228,0.8669,0.1592,-0.2439,0.0000,0.0610
1595878852,-0.5220,0.8645,0.1572,-0.3659,0.0000,0.0000
1595878852,-0.5212,0.8665,0.1608,-0.3659,0.0000,-0.1829
1595878852,-0.5213,0.8657,0.1589,-0.3049,0.0000,-0.2439
1595878852,-0.5212,0.8657,0.1594,-0.2439,0.0000,-0.3049
1595878852,-0.5229,0.8666,0.1588,-0.3049,0.0610,-0.2439
1595878852,-0.5225,0.8674,0.1591,-0.2439,-0.0610,-0.1220
1595878852,-0.5216,0.8663,0.1600,-0.1829,-0.0610,0.1220
1595878852,-0.5226,0.8665,0.1597,-0.1829,-0.1220,0.2439
1595878852,-0.5204,0.8664,0.1591,-0.3049,-0.0610,0.1220
1595878852,-0.5214,0.8665,0.1597,-0.3049,0.0000,-0.0610
1595878852,-0.5200,0.8647,0.1594,-0.3049,0.0000,-0.2439
1595878852,-0.5217,0.8639,0.1598,-0.3049,0.0610,-0.3659
1595878852,-0.5204,0.8675,0.1600,-0.2439,0.0610,-0.3659
1595878852,-0.5220,0.8649,0.1606,-0.3049,0.0000,-0.1829
1595878852,-0.5215,0.8657,0.1589,-0.1829,-0.0610,0.0000
1595878852,-0.5222,0.8663,0.1607,-0.2439,0.0610,0.1829
1595878852,-0.5198,0.8660,0.1599,-0.2439,0.0000,0.2439
1595878852,-0.5197,0.8656,0.1584,-0.2439,-0.1220,0.0610
1595878852,-0.5216,0.8668,0.1584,-0.2439,-0.0610,-0.2439
1595878852,-0.5217,0.8649,0.1589,-0.3049,0.0610,-0.3049
1595878852,-0.5225,0.8652,0.1599,-0.3659,0.0000,-0.3049
1595878852,-0.5235,0.8654,0.1593,-0.3659,0.0000,-0.1829
1595878852,-0.5227,0.8666,0.1589,-0.2439,0.0000,0.0000
1595878852,-0.5211,0.8672,0.1606,-0.2439,-0.0610,0.1220
1595878852,-0.5223,0.8652,0.1600,-0.2439,-0.0610,0.1829
1595878852,-0.5208,0.8657,0.1592,-0.1829,0.0000,0.1220
1595878852,-0.5229,0.8651,0.1596,-0.1829,0.0000,-0.0610
1595878852,-0.5226,0.8653,0.1611,-0.2439,0.0000,-0.1829
1595878852,-0.5210,0.8649,0.1606,-0.2439,0.0000,-0.3659
1595878852,-0.5198,0.8646,0.1600,-0.3049,0.0000,-0.3049
1595878852,-0.5222,0.8658,0.1626,-0.3049,0.0000,-0.1829
1595878852,-0.5214,0.8658,0.1611,-0.1829,0.0000,-0.1220
1595878852,-0.5204,0.8669,0.1631,-0.2439,0.0000,0.0000
1595878852,-0.5220,0.8665,0.1600,-0.2439,0.0000,0.0610
1595878852,-0.5215,0.8659,0.1603,-0.1829,-0.0610,0.0000
1595878852,-0.5215,0.8651,0.1599,-0.3049,0.0000,-0.0610
1595878852,-0.5225,0.8657,0.1584,-0.3049,0.0000,0.0000
1595878852,-0.5219,0.8651,0.1588,-0.3049,-0.0610,-0.0610
1595878852,-0.5210,0.8656,0.1586,-0.3049,0.0000,-0.1829
1595878852,-0.5197,0.8649,0.1572,-0.3049,0.0610,-0.1829
1595878852,-0.5223,0.8661,0.1597,-0.3659,0.0610,-0.1220
1595878852,-0.5226,0.8657,0.1616,-0.3049,0.0000,0.0000
1595878852,-0.5232,0.8663,0.1582,-0.2439,0.0610,0.0610
1595878852,-0.5214,0.8672,0.1577,-0.2439,0.0610,0.1220
1595878852,-0.5212,0.8672,0.1572,-0.3049,0.0000,0.1220
1595878852,-0.5223,0.8638,0.1578,-0.3049,0.0000,-0.1220
1595878852,-0.5220,0.8667,0.1579,-0.3049,-0.0610,-0.3049
1595878852,-0.5228,0.8657,0.1592,-0.2439,0.0000,-0.3049
1595878852,-0.5230,0.8653,0.1602,-0.2439,0.0000,-0.3659
1595878852,-0.5219,0.8644,0.1613,-0.3049,-0.0610,-0.1829
1595878852,-0.5199,0.8665,0.1582,-0.1829,0.0000,0.1220
1595878852,-0.5208,0.8676,0.1570,-0.2439,-0.1220,0.1829
1595878852,-0.5205,0.8665,0.1603,-0.2439,-0.0610,0.1829
1595878852,-0.5229,0.8675,0.1594,-0.2439,0.0000,-0.1220
1595878852,-0.5214,0.8659,0.1602,-0.2439,0.0000,-0.3659
1595878852,-0.5212,0.8650,0.1610,-0.3659,0.0610,-0.3659
1595878852,-0.5223,0.8628,0.1611,-0.3049,0.0000,-0.2439
1595878852,-0.5216,0.8655,0.1603,-0.1220,0.0610,-0.1220
1595878852,-0.5215,0.8674,0.1605,-0.2439,0.0610,0.1220
1595878852,-0.5231,0.8678,0.1596,-0.3049,0.0000,0.1220
1595878852,-0.5223,0.8669,0.1595,-0.2439,-0.0610,0.1220
1595878852,-0.5237,0.8663,0.1619,-0.2439,0.0000,0.0000
1595878852,-0.5223,0.8668,0.1631,-0.3049,-0.0610,-0.2439
1595878853,-0.5228,0.8671,0.1592,-0.3049,-0.0610,-0.2439
1595878853,-0.5222,0.8669,0.1592,-0.3659,-0.0610,-0.2439
1595878853,-0.5201,0.8644,0.1627,-0.3049,0.0000,-0.1220
1595878853,-0.5192,0.8661,0.1604,-0.2439,0.0000,-0.1220
1595878853,-0.5226,0.8660,0.1592,-0.2439,0.0000,-0.0610
1595878853,-0.5239,0.8656,0.1610,-0.2439,-0.0610,0.0610
1595878853,-0.5231,0.8671,0.1606,-0.3049,-0.0610,0.0000
1595878853,-0.5228,0.8661,0.1603,-0.3049,-0.0610,0.0000
1595878853,-0.5209,0.8658,0.1590,-0.2439,0.0000,-0.0610
1595878853,-0.5213,0.8672,0.1587,-0.1829,-0.1220,-0.0610
1595878853,-0.5214,0.8649,0.1588,-0.2439,0.0610,-0.0610
1595878853,-0.5223,0.8658,0.1603,-0.3049,-0.0610,-0.1220
1595878853,-0.5225,0.8668,0.1611,-0.3659,0.0000,-0.1220
1595878853,-0.5217,0.8661,0.1615,-0.1829,0.0000,-0.1829
1595878853,-0.5236,0.8659,0.1590,-0.2439,0.0000,-0.1829
1595878853,-0.5208,0.8664,0.1587,-0.2439,0.0000,-0.0610
1595878853,-0.5227,0.8659,0.1593,-0.3049,0.0000,0.0000
1595878853,-0.5239,0.8657,0.1602,-0.3049,-0.0610,0.0000
1595878853,-0.5222,0.8622,0.1604,-0.2439,-0.0610,-0.0610
1595878853,-0.5226,0.8643,0.1600,-0.2439,0.0610,-0.1220
1595878853,-0.5199,0.8675,0.1597,-0.2439,0.0610,-0.1220
1595878853,-0.5209,0.8652,0.1598,-0.1829,0.0000,-0.1220
1595878853,-0.5228,0.8669,0.1597,-0.3049,-0.0610,-0.1220
1595878853,-0.5202,0.8655,0.1569,-0.2439,-0.0610,-0.0610
1595878853,-0.5220,0.8668,0.1587,-0.3049,-0.1220,0.0000
1595878853,-0.5218,0.8667,0.1624,-0.3049,-0.0610,-0.1220
1595878853,-0.5237,0.8661,0.1606,-0.3049,0.0000,-0.1829
1595878853,-0.5216,0.8652,0.1594,-0.3659,0.0610,-0.1829
1595878853,-0.5225,0.8660,0.1577,-0.2439,0.0000,-0.1829
1595878853,-0.5215,0.8658,0.1581,-0.2439,0.0000,0.0000
1595878853,-0.5210,0.8665,0.1621,-0.2439,0.0000,0.0000
1595878853,-0.5222,0.8665,0.1598,-0.1829,-0.1220,0.0610
1595878853,-0.5217,0.8666,0.1588,-0.2439,0.0000,0.0000
1595878853,-0.5234,0.8668,0.1600,-0.2439,0.0000,-0.1220
1595878853,-0.5222,0.8656,0.1586,-0.3049,0.0610,-0.3049
1595878853,-0.5212,0.8656,0.1609,-0.3659,0.0610,-0.3049
1595878853,-0.5223,0.8641,0.1621,-0.2439,0.0610,-0.2439
1595878853,-0.5213,0.8672,0.1595,-0.3049,0.0000,-0.1220
1595878853,-0.5215,0.8664,0.1608,-0.3049,-0.0610,0.0610
1595878853,-0.5193,0.8662,0.1586,-0.2439,-0.0610,0.1829
1595878853,-0.5204,0.8671,0.1585,-0.1829,0.0000,0.1220
1595878853,-0.5234,0.8657,0.1588,-0.1829,-0.0610,-0.1220
1595878853,-0.5220,0.8655,0.1600,-0.3049,0.0000,-0.2439
1595878853,-0.5209,0.8654,0.1601,-0.3659,0.0610,-0.1829
1595878853,-0.5230,0.8669,0.1617,-0.3659,0.0000,-0.1829
1595878853,-0.5212,0.8658,0.1591,-0.3049,0.0000,-0.0610
1595878853,-0.5233,0.8658,0.1577,-0.2439,-0.0610,0.0000
1595878853,-0.5216,0.8656,0.1604,-0.2439,-0.0610,0.0000
1595878853,-0.5193,0.8672,0.1594,-0.3049,0.0000,0.0000
1595878853,-0.5203,0.8658,0.1594,-0.3049,0.0000,-0.1220
1595878853,-0.5214,0.8656,0.1608,-0.3659,0.0000,-0.1220
1595878853,-0.5225,0.8656,0.1575,-0.3659,0.0610,-0.1829
1595878853,-0.5218,0.8649,0.1605,-0.3049,0.0610,-0.0610
1595878853,-0.5222,0.8665,0.1591,-0.3049,0.0000,0.0000
1595878853,-0.5200,0.8654,0.1595,-0.3049,0.0000,0.0000
1595878853,-0.5217,0.8671,0.1580,-0.3049,0.0000,0.0610
1595878853,-0.5215,0.8668,0.1583,-0.1829,0.0000,-0.0610
1595878853,-0.5218,0.8666,0.1596,-0.3049,0.0000,-0.1829
1595878853,-0.5219,0.8654,0.1604,-0.2439,0.0000,-0.1829
1595878853,-0.5213,0.8661,0.1572,-0.2439,0.0610,-0.1829
1595878853,-0.5228,0.8643,0.1574,-0.2439,0.0000,-0.0610
1595878853,-0.5211,0.8646,0.1597,-0.3049,-0.0610,-0.0610
1595878853,-0.5217,0.8657,0.1605,-0.3049,0.0610,0.0610
1595878853,-0.5223,0.8649,0.1582,-0.3049,-0.0610,0.1220
1595878853,-0.5201,0.8652,0.1606,-0.3049,-0.1220,0.0000
1595878853,-0.5210,0.8669,0.1604,-0.2439,0.0000,-0.0610
1595878853,-0.5228,0.8660,0.1600,-0.2439,0.0000,-0.1220
1595878853,-0.5214,0.8648,0.1597,-0.2439,0.0000,-0.2439
1595878853,-0.5226,0.8655,0.1627,-0.2439,0.0610,-0.3049
1595878853,-0.5248,0.8662,0.1605,-0.3049,0.0610,-0.1829
1595878853,-0.5215,0.8648,0.1581,-0.3049,-0.0610,-0.0610
1595878853,-0.5203,0.8652,0.1603,-0.2439,0.0000,0.0610
1595878853,-0.5213,0.8646,0.1620,-0.2439,0.0000,0.1829
1595878853,-0.5190,0.8663,0.1597,-0.2439,-0.0610,0.2439
1595878853,-0.5214,0.8671,0.1601,-0.2439,-0.1220,0.0610
1595878853,-0.5205,0.8682,0.1586,-0.1829,0.0000,-0.2439
1595878853,-0.5219,0.8662,0.1602,-0.2439,0.0610,-0.4268
1595878853,-0.5235,0.8634,0.1600,-0.3659,0.0610,-0.4268
1595878853,-0.5225,0.8654,0.1593,-0.3049,0.0000,-0.2439
1595878853,-0.5223,0.8646,0.1598,-0.3049,-0.0610,-0.0610
1595878853,-0.5225,0.8654,0.1591,-0.2439,-0.0610,0.0610
1595878853,-0.5199,0.8655,0.1613,-0.1829,-0.1220,0.0610
1595878853,-0.5229,0.8636,0.1600,-0.2439,-0.0610,0.1220
1595878853,-0.5229,0.8673,0.1613,-0.2439,0.0000,0.0000
1595878853,-0.5215,0.8680,0.1595,-0.3659,0.0000,-0.1829
1595878853,-0.5217,0.8650,0.1616,-0.2439,0.0610,-0.2439
1595878853,-0.5212,0.8659,0.1592,-0.2439,0.0610,-0.2439
1595878853,-0.5220,0.8669,0.1595,-0.1829,-0.0610,-0.1220
1595878853,-0.5212,0.8658,0.1627,-0.1829,0.0000,-0.0610
1595878853,-0.5212,0.8662,0.1615,-0.1829,0.0000,0.0610
1595878853,-0.5198,0.8671,0.1600,-0.2439,0.0000,0.0000
1595878853,-0.5207,0.8650,0.1606,-0.2439,-0.0610,-0.0610
1595878853,-0.5211,0.8641,0.1609,-0.2439,-0.0610,-0.1220
1595878853,-0.5228,0.8649,0.1595,-0.3049,-0.0610,-0.1220
1595878853,-0.5218,0.8651,0.1607,-0.3659,0.0000,-0.0610
1595878853,-0.5231,0.8672,0.1606,-0.3049,0.0000,0.0000
1595878853,-0.5208,0.8659,0.1611,-0.1829,0.0000,-0.0610
1595878853,-0.5208,0.8671,0.1594,-0.2439,0.0000,-0.0610
1595878853,-0.5226,0.8649,0.1572,-0.3049,0.0000,-0.1220
1595878853,-0.5217,0.8641,0.1588,-0.3049,-0.0610,-0.0610
1595878853,-0.5221,0.8670,0.1592,-0.2439,-0.0610,-0.0610
1595878854,-0.5205,0.8664,0.1590,-0.3659,0.0610,-0.0610
1595878854,-0.5208,0.8671,0.1591,-0.3049,0.0000,-0.1220
1595878854,-0.5209,0.8660,0.1595,-0.3049,-0.0610,-0.1220
1595878854,-0.5214,0.8660,0.1587,-0.2439,0.0000,-0.1220
1595878854,-0.5201,0.8666,0.1614,-0.2439,0.0000,-0.1220
1595878854,-0.5184,0.8661,0.1606,-0.3049,-0.0610,-0.1220
1595878854,-0.5204,0.8657,0.1611,-0.3659,0.0000,-0.0610
1595878854,-0.5222,0.8678,0.1594,-0.2439,0.0000,0.0610
1595878854,-0.5214,0.8673,0.1573,-0.2439,0.0610,0.0000
1595878854,-0.5219,0.8658,0.1603,-0.2439,0.0000,-0.0610
1595878854,-0.5220,0.8662,0.1620,-0.3049,-0.0610,-0.1829
1595878854,-0.5219,0.8647,0.1616,-0.3049,-0.0610,-0.2439
1595878854,-0.5233,0.8669,0.1603,-0.3049,0.0000,-0.2439
1595878854,-0.5219,0.8661,0.1580,-0.1829,0.0000,-0.1220
1595878854,-0.5226,0.8650,0.1591,-0.3049,-0.0610,0.0610
1595878854,-0.5192,0.8668,0.1599,-0.3049,-0.0610,0.1220
1595878854,-0.5200,0.8668,0.1628,-0.1829,0.0000,0.0610
1595878854,-0.5219,0.8650,0.1605,-0.2439,-0.0610,-0.0610
1595878854,-0.5214,0.8662,0.1592,-0.3659,0.0610,-0.1829
1595878854,-0.5223,0.8670,0.1605,-0.1829,0.0000,-0.1829
1595878854,-0.5207,0.8672,0.1611,-0.1829,0.0000,-0.2439
1595878854,-0.5217,0.8665,0.1599,-0.2439,0.0000,-0.2439
1595878854,-0.5208,0.8642,0.1572,-0.3049,-0.0610,-0.1829
1595878854,-0.5214,0.8657,0.1579,-0.3659,-0.0610,-0.0610
1595878854,-0.5217,0.8657,0.1613,-0.2439,-0.0610,0.0000
1595878854,-0.5215,0.8665,0.1603,-0.2439,0.0000,0.0610
1595878854,-0.5207,0.8654,0.1620,-0.2439,0.0000,0.0610
1595878854,-0.5213,0.8655,0.1602,-0.2439,0.0610,0.0610
1595878854,-0.5218,0.8680,0.1607,-0.3049,0.0000,0.0000
1595878854,-0.5216,0.8643,0.1616,-0.2439,-0.0610,-0.1220
1595878854,-0.5220,0.8645,0.1586,-0.3049,0.0000,-0.1829
1595878854,-0.5209,0.8671,0.1578,-0.2439,0.0000,-0.3049
1595878854,-0.5209,0.8647,0.1584,-0.3049,0.0000,-0.3049
1595878854,-0.5216,0.8662,0.1615,-0.3049,0.0000,-0.1829
1595878854,-0.5207,0.8660,0.1636,-0.3049,0.0000,-0.0610
1595878854,-0.5224,0.8666,0.1581,-0.2439,0.0000,0.0610
1595878854,-0.5213,0.8671,0.1576,-0.2439,-0.0610,0.1220
1595878854,-0.5198,0.8672,0.1624,-0.3049,-0.0610,0.0610
1595878854,-0.5211,0.8671,0.1609,-0.1829,0.0000,0.0000
1595878854,-0.5207,0.8666,0.1600,-0.3049,0.0000,-0.1829
1595878854,-0.5226,0.8648,0.1600,-0.3049,-0.0610,-0.2439
1595878854,-0.5214,0.8666,0.1606,-0.3049,0.0610,-0.1829
1595878854,-0.5226,0.8642,0.1597,-0.2439,0.0000,-0.1829
1595878854,-0.5216,0.8640,0.1589,-0.3049,0.0000,-0.1829
1595878854,-0.5229,0.8671,0.1601,-0.2439,-0.0610,-0.0610
1595878854,-0.5229,0.8659,0.1603,-0.3049,0.0000,0.0000
1595878854,-0.5217,0.8661,0.1589,-0.3659,0.0000,0.0610
1595878854,-0.5205,0.8647,0.1603,-0.3049,0.0000,0.0000
1595878854,-0.5196,0.8652,0.1588,-0.2439,0.0000,-0.0610
1595878854,-0.5229,0.8651,0.1604,-0.1220,0.0000,-0.1220
1595878854,-0.5220,0.8664,0.1606,-0.1829,-0.0610,-0.1829
1595878854,-0.5218,0.8654,0.1627,-0.3049,0.0000,-0.1829
1595878854,-0.5207,0.8654,0.1616,-0.3049,0.0000,-0.1220
1595878854,-0.5222,0.8660,0.1583,-0.2439,0.0000,-0.0610
1595878854,-0.5221,0.8651,0.1584,-0.2439,0.0000,0.0000
1595878854,-0.5206,0.8638,0.1577,-0.2439,0.0000,0.0000
1595878854,-0.5245,0.8651,0.1586,-0.3049,-0.0610,-0.0610
1595878854,-0.5231,0.8655,0.1592,-0.3049,-0.0610,-0.0610
1595878854,-0.5209,0.8658,0.1610,-0.1829,0.0000,-0.1220
1595878854,-0.5209,0.8657,0.1592,-0.1220,-0.0610,-0.0610
1595878854,-0.5233,0.8666,0.1578,-0.3049,0.1220,-0.1220
1595878854,-0.5214,0.8649,0.1606,-0.3049,-0.0610,-0.0610
1595878854,-0.5228,0.8667,0.1613,-0.2439,-0.0610,-0.0610
1595878854,-0.5203,0.8654,0.1577,-0.3049,-0.0610,-0.1220
1595878854,-0.5203,0.8645,0.1601,-0.3049,0.0610,-0.1829
1595878854,-0.5227,0.8658,0.1619,-0.2439,0.0000,-0.1829
1595878854,-0.5211,0.8669,0.1617,-0.3049,0.0610,0.0000
1595878854,-0.5208,0.8674,0.1592,-0.1829,0.0610,-0.0610
1595878854,-0.5231,0.8667,0.1592,-0.3049,0.0000,-0.0610
1595878854,-0.5223,0.8651,0.1590,-0.3049,0.0000,0.1220
1595878854,-0.5205,0.8670,0.1617,-0.3659,0.0610,0.0000
1595878854,-0.5204,0.8667,0.1598,-0.2439,0.0000,-0.2439
1595878854,-0.5220,0.8654,0.1581,-0.2439,0.0000,-0.2439
1595878854,-0.5217,0.8657,0.1595,-0.1829,0.0000,-0.1829
1595878854,-0.5209,0.8671,0.1602,-0.3049,-0.0610,-0.0610
1595878854,-0.5209,0.8653,0.1599,-0.2439,-0.0610,0.0000
1595878854,-0.5208,0.8653,0.1594,-0.2439,-0.0610,0.0000
1595878854,-0.5220,0.8654,0.1603,-0.3049,-0.0610,-0.0610
1595878854,-0.5217,0.8664,0.1603,-0.3049,-0.1220,-0.0610
1595878854,-0.5203,0.8655,0.1583,-0.2439,0.0000,0.0000
1595878854,-0.5212,0.8654,0.1610,-0.2439,0.0000,-0.1220
1595878854,-0.5220,0.8662,0.1602,-0.2439,-0.1220,-0.2439
1595878854,-0.5231,0.8651,0.1591,-0.2439,-0.0610,-0.1220
1595878854,-0.5226,0.8668,0.1593,-0.2439,0.0000,-0.0610
1595878854,-0.5231,0.8668,0.1607,-0.3049,-0.0610,0.0610
1595878854,-0.5226,0.8668,0.1622,-0.3049,0.0610,0.0000
1595878854,-0.5217,0.8643,0.1598,-0.3049,-0.0610,-0.0610
1595878854,-0.5214,0.8666,0.1616,-0.3049,-0.0610,-0.1220
1595878854,-0.5215,0.8668,0.1613,-0.2439,0.0000,-0.1829
1595878854,-0.5231,0.8646,0.1599,-0.2439,0.0000,-0.1220
1595878854,-0.5228,0.8654,0.1611,-0.2439,0.0000,-0.0610
1595878854,-0.5208,0.8648,0.1613,-0.3049,0.0000,-0.0610
1595878854,-0.5228,0.8653,0.1583,-0.1829,-0.0610,-0.0610
1595878854,-0.5226,0.8659,0.1601,-0.1220,-0.1220,-0.1220
1595878854,-0.5215,0.8671,0.1599,-0.3049,0.0000,-0.1220
1595878854,-0.5225,0.8656,0.1627,-0.2439,-0.0610,-0.0610
1595878854,-0.5203,0.8629,0.1598,-0.1829,0.0000,0.0000
1595878854,-0.5214,0.8661,0.1571,-0.2439,0.0610,-0.0610
1595878854,-0.5212,0.8672,0.1591,-0.2439,0.0610,-0.0610
1595878854,-0.5206,0.8677,0.1591,-0.2439,0.0000,-0.1829
1595878855,-0.5220,0.8649,0.1617,-0.3049,-0.0610,-0.1220
1595878855,-0.5217,0.8656,0.1619,-0.3049,0.0000,-0.1220
1595878855,-0.5225,0.8658,0.1631,-0.2439,0.0000,-0.1220
1595878855,-0.5232,0.8674,0.1586,-0.2439,0.0000,-0.0610
1595878855,-0.5230,0.8657,0.1587,-0.2439,0.0000,-0.0610
1595878855,-0.5212,0.8655,0.1598,-0.3049,0.0610,-0.0610
1595878855,-0.5209,0.8664,0.1578,-0.3049,-0.0610,-0.1829
1595878855,-0.5210,0.8656,0.1581,-0.3049,-0.0610,-0.1220
1595878855,-0.5201,0.8647,0.1596,-0.2439,0.0000,-0.1220
1595878855,-0.5206,0.8652,0.1600,-0.1829,0.0000,0.0000
1595878855,-0.5223,0.8682,0.1619,-0.3049,0.0000,0.1220
1595878855,-0.5220,0.8654,0.1622,-0.2439,0.0000,0.0610
1595878855,-0.5226,0.8652,0.1602,-0.1829,-0.0610,-0.0610
1595878855,-0.5216,0.8665,0.1609,-0.2439,0.0000,-0.1829
1595878855,-0.5214,0.8658,0.1609,-0.2439,0.0000,-0.3049
1595878855,-0.5224,0.8668,0.1578,-0.3049,0.0000,-0.3659
1595878855,-0.5242,0.8658,0.1600,-0.3659,0.0610,-0.1829
1595878855,-0.5238,0.8660,0.1607,-0.3049,0.0000,-0.1220
1595878855,-0.5214,0.8658,0.1608,-0.2439,-0.0610,0.1829
1595878855,-0.5208,0.8660,0.1608,-0.1829,-0.0610,0.3049
1595878855,-0.5198,0.8655,0.1597,-0.3659,-0.1220,0.1829
1595878855,-0.5214,0.8668,0.1592,-0.3659,-0.0610,-0.1829
1595878855,-0.5219,0.8660,0.1584,-0.3049,0.0000,-0.3659
1595878855,-0.5220,0.8654,0.1600,-0.1829,0.0000,-0.4878
1595878855,-0.5212,0.8657,0.1583,-0.1829,-0.0610,-0.4268
1595878855,-0.5215,0.8650,0.1603,-0.3049,0.0610,-0.1829
1595878855,-0.5202,0.8652,0.1584,-0.2439,-0.0610,0.1220
1595878855,-0.5204,0.8676,0.1591,-0.3049,0.0000,0.3049
1595878855,-0.5201,0.8661,0.1614,-0.3049,-0.0610,0.2439
1595878855,-0.5222,0.8643,0.1624,-0.3049,0.0000,0.0610
1595878855,-0.5217,0.8651,0.1602,-0.2439,-0.0610,-0.1220
1595878855,-0.5204,0.8654,0.1600,-0.2439,0.0000,-0.3659
1595878855,-0.5223,0.8662,0.1602,-0.2439,0.0610,-0.4878
1595878855,-0.5219,0.8655,0.1607,-0.2439,0.0000,-0.2439
1595878855,-0.5210,0.8643,0.1582,-0.2439,0.0000,-0.0610
1595878855,-0.5215,0.8656,0.1579,-0.3049,-0.0610,0.0000
1595878855,-0.5220,0.8672,0.1599,-0.3049,-0.1220,0.0000
1595878855,-0.5215,0.8669,0.1602,-0.1829,0.0000,0.0610
1595878855,-0.5215,0.8686,0.1576,-0.2439,-0.0610,0.0610
1595878855,-0.5213,0.8659,0.1589,-0.2439,0.0000,0.0000
1595878855,-0.5208,0.8653,0.1597,-0.2439,0.1220,-0.1220
1595878855,-0.5220,0.8643,0.1606,-0.3659,0.0610,-0.1220
1595878855,-0.5206,0.8653,0.1614,-0.3049,0.0000,-0.1220
1595878855,-0.5214,0.8679,0.1632,-0.3049,0.0000,-0.1220
1595878855,-0.5220,0.8643,0.1599,-0.2439,0.0000,-0.0610
1595878855,-0.5217,0.8652,0.1609,-0.1829,0.0610,-0.1220
1595878855,-0.5212,0.8651,0.1586,-0.2439,0.0610,-0.0610
1595878855,-0.5214,0.8671,0.1609,-0.3049,0.0000,0.0000
1595878855,-0.5225,0.8658,0.1616,-0.1829,0.0000,0.0000
1595878855,-0.5229,0.8652,0.1600,-0.3049,-0.0610,-0.0610
1595878855,-0.5214,0.8658,0.1588,-0.2439,-0.0610,-0.0610
1595878855,-0.5220,0.8679,0.1594,-0.1829,0.0000,-0.0610
1595878855,-0.5267,0.8727,0.1359,-0.3049,0.0000,-0.1220
1595878855,-0.5228,0.8647,0.1611,-0.2439,-0.0610,-0.3659
1595878855,-0.5195,0.8552,0.1854,-0.3659,-0.0610,-0.9756
1595878855,-0.5222,0.8607,0.1776,-0.3659,0.0610,-1.3415
1595878855,-0.5217,0.8582,0.1694,-0.3049,0.1220,-0.5488
1595878855,-0.5193,0.8647,0.1553,-0.2439,-0.0610,0.9146
1595878855,-0.5170,0.8757,0.1443,0.1220,-0.3659,4.0244
1595878855,-0.5129,0.8781,0.1558,0.3659,-0.6098,5.4878
1595878855,-0.5154,0.8723,0.1724,0.1220,-0.3049,2.9268
1595878855,-0.5217,0.8718,0.1625,-0.4878,0.2439,-2.3171
1595878855,-0.5300,0.8661,0.1420,-0.7927,0.7927,-6.2805
1595878855,-0.5327,0.8569,0.1436,-0.9756,0.8537,-7.3780
1595878855,-0.5293,0.8542,0.1620,-0.8537,0.5488,-5.3659
1595878855,-0.5208,0.8524,0.1739,-0.4878,-0.0610,-1.0366
1595878855,-0.5200,0.8629,0.1730,-0.1220,-0.3659,2.9878
1595878855,-0.5198,0.8655,0.1672,0.1829,-0.4878,4.3902
1595878855,-0.5196,0.8718,0.1559,0.1829,-0.3659,4.0244
1595878855,-0.5182,0.8743,0.1478,0.1220,-0.2439,3.4146
1595878855,-0.5151,0.8712,0.1573,0.0610,-0.2439,2.1341
1595878855,-0.5193,0.8687,0.1708,-0.1829,0.0000,-0.0610
1595878855,-0.5236,0.8676,0.1594,-0.4268,0.2439,-2.0122
1595878855,-0.5261,0.8655,0.1506,-0.4878,0.3049,-2.6829
1595878855,-0.5248,0.8633,0.1567,-0.4878,0.3049,-2.3171
1595878855,-0.5215,0.8629,0.1614,-0.4878,0.0610,-1.2805
1595878855,-0.5217,0.8649,0.1584,-0.3049,-0.0610,0.0610
1595878855,-0.5201,0.8618,0.1589,-0.3049,0.0000,0.2439
1595878855,-0.5248,0.8619,0.1664,-0.4878,0.0000,-0.6707
1595878855,-0.5245,0.8624,0.1659,-0.4268,0.0610,-0.7927
1595878855,-0.5216,0.8632,0.1620,-0.2439,0.0000,0.4268
1595878855,-0.5173,0.8655,0.1646,-0.1829,-0.1829,1.5854
1595878855,-0.5167,0.8707,0.1562,-0.1220,-0.3049,2.1951
1595878855,-0.5183,0.8758,0.1462,0.0000,-0.2439,2.6220
1595878855,-0.5187,0.8756,0.1503,0.0000,-0.2439,2.0122
1595878855,-0.5195,0.8724,0.1630,-0.2439,-0.0610,0.2439
1595878855,-0.5219,0.8683,0.1690,-0.4268,0.1829,-2.0732
1595878855,-0.5252,0.8628,0.1609,-0.6098,0.4878,-4.2683
1595878855,-0.5283,0.8578,0.1569,-0.8537,0.6707,-5.7927
1595878855,-0.5283,0.8560,0.1562,-0.9146,0.5488,-5.0610
1595878855,-0.5228,0.8581,0.1583,-0.4878,0.1829,-1.5854
1595878855,-0.5189,0.8618,0.1667,0.0000,-0.4268,2.8049
1595878855,-0.5169,0.8653,0.1704,0.3049,-0.6707,5.6707
1595878855,-0.5140,0.8765,0.1563,0.4268,-0.6707,6.4024
1595878855,-0.5162,0.8802,0.1438,0.3049,-0.6098,5.1829
1595878855,-0.5173,0.8776,0.1480,0.0000,-0.1829,2.0732
1595878855,-0.5199,0.8707,0.1614,-0.4878,0.2439,-1.7073
1595878855,-0.5217,0.8609,0.1697,-0.8537,0.4878,-4.6951
1595878855,-0.5267,0.8542,0.1681,-1.0366,0.6707,-6.5854
1595878855,-0.5283,0.8528,0.1631,-1.0366,0.7927,-6.9512
1595878855,-0.5281,0.8580,0.1531,-0.7927,0.6098,-4.5122
1595878855,-0.5231,0.8604,0.1522,-0.3659,0.1829,-0.4878
1595878855,-0.5197,0.8656,0.1647,0.0000,-0.3659,3.2927
1595878855,-0.5169,0.8704,0.1701,0.1829,-0.6098,5.1829
1595878856,-0.5171,0.8727,0.1614,0.1829,-0.5488,4.6951
1595878856,-0.5204,0.8740,0.1502,0.0610,-0.1829,2.3780
1595878856,-0.5220,0.8704,0.1497,-0.1829,0.1829,-0.6707
1595878856,-0.5223,0.8652,0.1558,-0.4878,0.2439,-2.7439
1595878856,-0.5255,0.8616,0.1648,-0.6098,0.3659,-3.2927
1595878856,-0.5229,0.8585,0.1691,-0.6098,0.3049,-3.1707
1595878856,-0.5255,0.8595,0.1689,-0.5488,0.1829,-2.3780
1595878856,-0.5255,0.8580,0.1572,-0.3659,0.0610,-0.9756
1595878856,-0.5242,0.8629,0.1518,-0.0610,-0.0610,0.8537
1595878856,-0.5197,0.8666,0.1578,0.1220,-0.2439,2.5000
1595878856,-0.5168,0.8693,0.1612,0.1220,-0.4268,3.2317
1595878856,-0.5179,0.8717,0.1603,-0.0610,-0.3049,2.6829
1595878856,-0.5200,0.8688,0.1589,-0.1220,0.0000,0.7317
1595878856,-0.5220,0.8637,0.1602,-0.3659,0.0610,-1.2195
1595878856,-0.5202,0.8635,0.1592,-0.4268,0.1829,-1.7683
1595878856,-0.5214,0.8652,0.1608,-0.3049,0.0610,-1.0366
1595878856,-0.5216,0.8637,0.1632,-0.3049,0.0000,-0.3049
1595878856,-0.5259,0.8663,0.1627,-0.3659,0.0610,-0.1220
1595878856,-0.5260,0.8637,0.1566,-0.2439,0.0610,-0.4878
1595878856,-0.5262,0.8609,0.1585,-0.2439,0.0610,-1.2805
1595878856,-0.5239,0.8597,0.1594,-0.3049,0.0610,-1.2805
1595878856,-0.5195,0.8630,0.1575,-0.1829,-0.1220,0.4268
1595878856,-0.5197,0.8695,0.1627,0.0000,-0.3659,2.8049
1595878856,-0.5179,0.8723,0.1621,0.0610,-0.4878,3.9634
1595878856,-0.5204,0.8739,0.1605,0.0000,-0.3049,3.1098
1595878856,-0.5211,0.8727,0.1553,-0.1829,-0.0610,0.6707
1595878856,-0.5235,0.8669,0.1542,-0.4878,0.2439,-2.8659
1595878856,-0.5252,0.8572,0.1608,-0.7927,0.5488,-5.4878
1595878856,-0.5273,0.8551,0.1628,-0.9146,0.4878,-5.4268
1595878856,-0.5236,0.8555,0.1666,-0.6707,0.3049,-2.4390
1595878856,-0.5215,0.8611,0.1675,-0.1829,-0.1829,1.5244
1595878856,-0.5157,0.8700,0.1613,0.2439,-0.6098,5.3049
1595878856,-0.5140,0.8766,0.1556,0.5488,-0.8537,7.3780
1595878856,-0.5140,0.8787,0.1541,0.3659,-0.7317,6.0366
1595878856,-0.5164,0.8785,0.1583,-0.1220,-0.3049,2.1951
1595878856,-0.5207,0.8693,0.1552,-0.4268,0.1829,-2.0122
1595878856,-0.5250,0.8653,0.1592,-0.7927,0.6098,-5.5488
1595878856,-0.5269,0.8542,0.1624,-1.0366,0.7927,-6.9512
1595878856,-0.5260,0.8546,0.1606,-0.7317,0.6707,-5.6098
1595878856,-0.5242,0.8563,0.1613,-0.4268,0.2439,-2.3171
1595878856,-0.5228,0.8613,0.1644,-0.1829,-0.1829,1.2195
1595878856,-0.5176,0.8687,0.1647,0.0000,-0.4268,4.0244
1595878856,-0.5167,0.8739,0.1628,0.2439,-0.5488,4.9390
1595878856,-0.5177,0.8718,0.1595,0.1829,-0.5488,4.0244
1595878856,-0.5178,0.8693,0.1562,-0.1829,-0.2439,1.5244
1595878856,-0.5201,0.8695,0.1518,-0.3659,0.1829,-1.2805
1595878856,-0.5225,0.8635,0.1555,-0.4878,0.3659,-2.8659
1595878856,-0.5234,0.8610,0.1674,-0.5488,0.2439,-3.2317
1595878856,-0.5220,0.8587,0.1691,-0.6098,0.1829,-2.6220
1595878856,-0.5221,0.8636,0.1629,-0.3659,0.0610,-1.0366
1595878856,-0.5231,0.8637,0.1567,-0.1220,-0.1220,0.7317
1595878856,-0.5211,0.8677,0.1591,-0.1220,-0.1829,1.8293
1595878856,-0.5198,0.8717,0.1589,-0.1829,-0.3049,2.2561
1595878856,-0.5178,0.8690,0.1619,-0.0610,-0.2439,1.7683
1595878856,-0.5179,0.8666,0.1670,-0.1220,0.0000,0.3659
1595878856,-0.5215,0.8640,0.1626,-0.3049,0.1829,-1.4024
1595878856,-0.5257,0.8655,0.1523,-0.4268,0.1829,-2.1341
1595878856,-0.5258,0.8631,0.1531,-0.4268,0.2439,-1.7073
1595878856,-0.5225,0.8650,0.1569,-0.3049,0.0610,-0.8537
1595878856,-0.5222,0.8651,0.1624,-0.3049,-0.1220,0.1220
1595878856,-0.5230,0.8650,0.1631,-0.2439,-0.0610,0.4268
1595878856,-0.5215,0.8639,0.1616,-0.2439,0.0000,0.0610
1595878856,-0.5220,0.8647,0.1567,-0.3049,0.0000,-0.2439
1595878856,-0.5207,0.8647,0.1564,-0.1829,0.0000,0.4268
1595878856,-0.5189,0.8678,0.1605,-0.1220,-0.1829,1.6463
1595878856,-0.5172,0.8685,0.1668,-0.0610,-0.2439,2.1341
1595878856,-0.5177,0.8706,0.1639,-0.1220,-0.1220,1.8293
1595878856,-0.5219,0.8718,0.1565,-0.1220,0.0000,0.7317
1595878856,-0.5236,0.8677,0.1511,-0.3049,0.1829,-1.2195
1595878856,-0.5237,0.8650,0.1532,-0.4878,0.3049,-3.1098
1595878856,-0.5265,0.8604,0.1571,-0.7317,0.4268,-3.7805
1595878856,-0.5264,0.8577,0.1635,-0.6707,0.3659,-3.3537
1595878856,-0.5260,0.8577,0.1697,-0.4878,0.1829,-1.9512
1595878856,-0.5225,0.8609,0.1638,-0.3049,-0.1220,0.3659
1595878856,-0.5212,0.8694,0.1572,-0.0610,-0.3659,3.2317
1595878856,-0.5168,0.8712,0.1594,0.1829,-0.5488,5.0610
1595878856,-0.5143,0.8731,0.1618,0.2439,-0.5488,4.9390
1595878856,-0.5172,0.8727,0.1591,0.0610,-0.3049,3.0488
1595878856,-0.5212,0.8714,0.1583,-0.2439,0.0000,-0.1220
1595878856,-0.5212,0.8654,0.1613,-0.4878,0.3049,-3.6585
1595878856,-0.5253,0.8618,0.1578,-0.6707,0.6098,-5.5488
1595878856,-0.5282,0.8583,0.1568,-0.6707,0.5488,-5.1829
1595878856,-0.5258,0.8575,0.1636,-0.6098,0.3659,-3.1707
1595878856,-0.5242,0.8594,0.1672,-0.3659,0.0610,-0.4878
1595878856,-0.5198,0.8660,0.1650,-0.0610,-0.2439,2.3171
1595878856,-0.5182,0.8705,0.1588,0.1829,-0.4268,4.0854
1595878856,-0.5171,0.8710,0.1606,0.1220,-0.3659,3.9634
1595878856,-0.5175,0.8708,0.1580,-0.0610,-0.2439,2.4390
1595878856,-0.5201,0.8707,0.1550,-0.1220,-0.1220,0.6098
1595878856,-0.5208,0.8678,0.1594,-0.3659,0.1829,-1.2805
1595878856,-0.5234,0.8642,0.1635,-0.5488,0.3049,-2.9268
1595878856,-0.5247,0.8612,0.1617,-0.5488,0.2439,-3.2317
1595878856,-0.5249,0.8613,0.1578,-0.4878,0.2439,-2.2561
1595878856,-0.5241,0.8618,0.1613,-0.4268,0.1829,-0.9146
1595878856,-0.5238,0.8659,0.1608,-0.1829,-0.0610,0.6098
1595878856,-0.5204,0.8696,0.1591,-0.0610,-0.2439,2.0732
1595878856,-0.5199,0.8672,0.1643,-0.0610,-0.3049,2.5000
1595878856,-0.5187,0.8668,0.1663,-0.1829,-0.1829,1.6463
1595878856,-0.5199,0.8679,0.1581,-0.3049,0.0000,0.4878
1595878856,-0.5203,0.8680,0.1529,-0.2439,0.1220,-0.4268
1595878856,-0.5202,0.8671,0.1598,-0.3659,0.1829,-1.1585
1595878857,-0.5211,0.8646,0.1608,-0.4268,0.1220,-1.5244
1595878857,-0.5245,0.8646,0.1608,-0.4268,0.1220,-1.3415
1595878857,-0.5236,0.8614,0.1606,-0.3659,0.1220,-1.1585
1595878857,-0.5244,0.8625,0.1609,-0.3659,0.0610,-0.9756
1595878857,-0.5226,0.8652,0.1556,-0.2439,0.0000,-0.1220
1595878857,-0.5198,0.8671,0.1581,-0.1829,-0.1220,1.0976
1595878857,-0.5190,0.8669,0.1665,-0.1220,-0.3049,1.8293
1595878857,-0.5193,0.8683,0.1671,-0.1220,-0.3049,1.9512
1595878857,-0.5209,0.8710,0.1576,-0.0610,-0.1829,1.5244
1595878857,-0.5198,0.8701,0.1553,-0.1829,0.0000,0.3659
1595878857,-0.5224,0.8688,0.1558,-0.3049,0.0610,-1.0366
1595878857,-0.5239,0.8668,0.1542,-0.4878,0.1829,-2.0122
1595878857,-0.5237,0.8624,0.1597,-0.5488,0.2439,-2.3780
1595878857,-0.5244,0.8618,0.1646,-0.4268,0.2439,-2.3171
1595878857,-0.5260,0.8605,0.1633,-0.4878,0.1220,-1.5244
1595878857,-0.5213,0.8643,0.1581,-0.3049,-0.0610,0.1829
1595878857,-0.5191,0.8670,0.1572,-0.0610,-0.2439,2.1341
1595878857,-0.5160,0.8687,0.1603,0.0000,-0.4268,3.3537
1595878857,-0.5186,0.8722,0.1625,0.0610,-0.4268,3.4146
1595878857,-0.5202,0.8723,0.1616,-0.0610,-0.2439,2.0732
1595878857,-0.5224,0.8677,0.1592,-0.2439,0.0000,-0.3659
1595878857,-0.5236,0.8644,0.1569,-0.4878,0.3049,-2.7439
1595878857,-0.5252,0.8630,0.1527,-0.6098,0.4268,-3.8415
1595878857,-0.5249,0.8599,0.1619,-0.6098,0.3049,-3.4756
1595878857,-0.5259,0.8600,0.1652,-0.6098,0.1829,-2.1341
1595878857,-0.5246,0.8610,0.1621,-0.4268,0.0000,-0.0610
1595878857,-0.5206,0.8659,0.1606,-0.1220,-0.1829,2.0122
1595878857,-0.5177,0.8684,0.1616,-0.0610,-0.3049,2.9268
1595878857,-0.5179,0.8690,0.1595,0.0000,-0.4268,2.7439
1595878857,-0.5182,0.8692,0.1569,-0.1220,-0.1829,1.9512
1595878857,-0.5193,0.8681,0.1593,-0.1829,0.0610,0.4878
1595878857,-0.5204,0.8665,0.1623,-0.4268,0.1220,-1.2805
1595878857,-0.5231,0.8650,0.1604,-0.4878,0.1829,-2.5000
1595878857,-0.5248,0.8616,0.1572,-0.3659,0.2439,-2.5610
1595878857,-0.5257,0.8622,0.1570,-0.3659,0.1829,-1.9512
1595878857,-0.5245,0.8622,0.1591,-0.3659,0.0000,-0.7927
1595878857,-0.5239,0.8635,0.1607,-0.3049,-0.0610,0.6098
1595878857,-0.5219,0.8661,0.1603,-0.1220,-0.2439,1.5244
1595878857,-0.5194,0.8682,0.1646,-0.1220,-0.1829,1.5854
1595878857,-0.5181,0.8697,0.1591,-0.1829,-0.1220,1.2195
1595878857,-0.5195,0.8700,0.1572,-0.1829,-0.1220,0.7317
1595878857,-0.5206,0.8677,0.1593,-0.2439,0.0000,-0.0610
1595878857,-0.5220,0.8660,0.1615,-0.3659,0.0000,-0.7317
1595878857,-0.5221,0.8651,0.1595,-0.4878,0.0610,-0.9756
1595878857,-0.5248,0.8631,0.1583,-0.4268,0.1220,-1.2805
1595878857,-0.5237,0.8628,0.1575,-0.3659,0.1829,-1.4634
1595878857,-0.5233,0.8639,0.1559,-0.4268,0.1220,-1.0976
1595878857,-0.5239,0.8655,0.1580,-0.2439,-0.0610,-0.2439
1595878857,-0.5244,0.8660,0.1633,-0.1829,-0.0610,0.7317
1595878857,-0.5203,0.8648,0.1641,-0.2439,-0.1829,1.4634
1595878857,-0.5190,0.8671,0.1624,-0.1829,-0.1829,1.7073
1595878857,-0.5204,0.8673,0.1573,-0.1829,-0.1829,1.3415
1595878857,-0.5212,0.8681,0.1567,-0.1829,-0.0610,0.4878
1595878857,-0.5206,0.8670,0.1578,-0.1829,0.0610,-0.6098
1595878857,-0.5226,0.8663,0.1616,-0.3049,0.1220,-1.3415
1595878857,-0.5234,0.8622,0.1621,-0.4268,0.1829,-1.9512
1595878857,-0.5239,0.8614,0.1617,-0.4878,0.1829,-2.0732
1595878857,-0.5233,0.8629,0.1583,-0.4268,0.1220,-1.2805
1595878857,-0.5227,0.8627,0.1574,-0.2439,0.0000,0.1220
1595878857,-0.5187,0.8672,0.1620,-0.1220,-0.1829,1.5854
1595878857,-0.5178,0.8699,0.1625,-0.0610,-0.3659,2.5610
1595878857,-0.5192,0.8685,0.1628,0.0000,-0.3049,2.4390
1595878857,-0.5182,0.8701,0.1613,-0.1829,-0.1220,1.2195
1595878857,-0.5203,0.8690,0.1586,-0.3049,0.0610,-0.5488
1595878857,-0.5221,0.8660,0.1571,-0.3659,0.2439,-1.8902
1595878857,-0.5236,0.8619,0.1563,-0.4268,0.2439,-2.3780
1595878857,-0.5281,0.8616,0.1604,-0.4268,0.2439,-2.1341
1595878857,-0.5242,0.8612,0.1611,-0.4268,0.1829,-1.2195
1595878857,-0.5218,0.8647,0.1627,-0.3049,0.0000,0.1220
1595878857,-0.5197,0.8654,0.1612,-0.1829,-0.1829,1.0976
1595878857,-0.5190,0.8691,0.1597,-0.1220,-0.2439,1.7073
1595878857,-0.5184,0.8712,0.1586,-0.1220,-0.1829,1.8902
1595878857,-0.5212,0.8690,0.1596,-0.1220,-0.1220,1.4024
1595878857,-0.5220,0.8677,0.1611,-0.1829,0.0000,0.3659
1595878857,-0.5211,0.8663,0.1606,-0.3049,0.0610,-0.8537
1595878857,-0.5197,0.8668,0.1578,-0.3659,0.1829,-1.7073
1595878857,-0.5240,0.8652,0.1552,-0.4878,0.2439,-1.8293
1595878857,-0.5265,0.8625,0.1568,-0.4268,0.1829,-1.4024
1595878857,-0.5228,0.8629,0.1602,-0.3049,0.0610,-0.5488
1595878857,-0.5223,0.8644,0.1647,-0.2439,-0.0610,0.3659
1595878857,-0.5219,0.8663,0.1638,-0.1220,-0.1220,0.8537
1595878857,-0.5237,0.8666,0.1601,-0.0610,-0.1220,1.0366
1595878857,-0.5200,0.8691,0.1584,-0.1220,-0.1220,0.9756
1595878857,-0.5197,0.8687,0.1564,-0.2439,-0.1220,0.6098
1595878857,-0.5214,0.8674,0.1603,-0.1829,-0.0610,0.1829
1595878857,-0.5217,0.8665,0.1634,-0.1829,0.0000,-0.1220
1595878857,-0.5211,0.8658,0.1597,-0.3049,0.1220,-0.7317
1595878857,-0.5227,0.8641,0.1589,-0.3659,0.0610,-1.2195
1595878857,-0.5245,0.8639,0.1588,-0.3659,0.1829,-1.2805
1595878857,-0.5256,0.8632,0.1586,-0.3659,0.0610,-1.0366
1595878857,-0.5242,0.8630,0.1604,-0.3659,0.0610,-0.4268
1595878857,-0.5213,0.8646,0.1631,-0.1829,0.0000,0.3659
1595878857,-0.5193,0.8659,0.1607,-0.2439,-0.1220,0.9756
1595878857,-0.5193,0.8687,0.1579,-0.2439,-0.1220,1.2195
1595878857,-0.5192,0.8701,0.1568,-0.1829,-0.1220,1.1585
1595878857,-0.5192,0.8701,0.1572,-0.1220,-0.1220,0.7317
1595878857,-0.5193,0.8685,0.1599,-0.2439,0.0000,-0.0610
1595878857,-0.5221,0.8656,0.1622,-0.3049,0.0610,-0.9146
1595878857,-0.5248,0.8644,0.1597,-0.4268,0.2439,-1.7683
1595878857,-0.5258,0.8624,0.1591,-0.4268,0.1829,-1.8293
1595878858,-0.5237,0.8610,0.1588,-0.3659,0.1829,-1.3415
1595878858,-0.5237,0.8644,0.1589,-0.2439,0.0610,-0.2439
1595878858,-0.5206,0.8671,0.1625,-0.2439,-0.1829,1.0366
1595878858,-0.5188,0.8663,0.1644,-0.1829,-0.3049,1.9512
1595878858,-0.5190,0.8674,0.1628,-0.1829,-0.2439,1.8902
1595878858,-0.5209,0.8688,0.1582,-0.1829,-0.0610,1.0366
1595878858,-0.5224,0.8685,0.1570,-0.3049,0.0000,-0.1220
1595878858,-0.5235,0.8657,0.1559,-0.3659,0.1829,-1.2195
1595878858,-0.5242,0.8634,0.1591,-0.4268,0.1220,-1.8902
1595878858,-0.5251,0.8639,0.1586,-0.3659,0.1220,-1.7683
1595878858,-0.5249,0.8661,0.1581,-0.4268,0.1220,-1.2805
1595878858,-0.5231,0.8628,0.1608,-0.3049,0.0000,-0.4268
1595878858,-0.5214,0.8647,0.1609,-0.1829,-0.0610,0.5488
1595878858,-0.5216,0.8661,0.1590,-0.1829,-0.1829,1.2805
1595878858,-0.5208,0.8713,0.1600,-0.1220,-0.2439,1.6463
1595878858,-0.5170,0.8685,0.1612,-0.1220,-0.2439,1.2195
1595878858,-0.5210,0.8669,0.1619,-0.1829,-0.0610,0.4268
1595878858,-0.5213,0.8660,0.1589,-0.3049,-0.0610,-0.4268
1595878858,-0.5225,0.8636,0.1565,-0.4268,0.1220,-1.1585
1595878858,-0.5252,0.8644,0.1580,-0.4268,0.2439,-1.4634
1595878858,-0.5240,0.8640,0.1613,-0.4268,0.1829,-1.2195
1595878858,-0.5243,0.8637,0.1626,-0.3659,0.0000,-0.6707
1595878858,-0.5224,0.8619,0.1608,-0.3049,0.0610,-0.2439
1595878858,-0.5220,0.8644,0.1602,-0.3049,-0.0610,0.3049
1595878858,-0.5203,0.8686,0.1600,-0.1220,-0.1220,0.7927
1595878858,-0.5204,0.8689,0.1592,-0.1220,-0.1220,1.0366
1595878858,-0.5188,0.8680,0.1605,-0.1220,-0.1220,1.0976
1595878858,-0.5183,0.8676,0.1602,-0.1829,-0.0610,0.8537
1595878858,-0.5198,0.8663,0.1628,-0.3049,-0.0610,0.1220
1595878858,-0.5219,0.8663,0.1604,-0.3659,0.0000,-0.6707
1595878858,-0.5233,0.8654,0.1581,-0.4268,0.0610,-1.2195
1595878858,-0.5234,0.8637,0.1586,-0.3659,0.0610,-1.4634
1595878858,-0.5230,0.8643,0.1602,-0.3659,0.1220,-1.2195
1595878858,-0.5215,0.8611,0.1614,-0.3659,0.0610,-0.6098
1595878858,-0.5220,0.8616,0.1611,-0.1829,-0.1220,0.1829
1595878858,-0.5207,0.8664,0.1603,-0.2439,-0.1829,0.9146
1595878858,-0.5200,0.8697,0.1580,-0.1829,-0.2439,1.2805
1595878858,-0.5204,0.8690,0.1576,-0.1220,-0.1829,1.2805
1595878858,-0.5201,0.8694,0.1600,-0.0610,-0.1220,0.9756
1595878858,-0.5214,0.8663,0.1608,-0.2439,-0.0610,0.0610
1595878858,-0.5214,0.8651,0.1597,-0.3659,0.0610,-0.9756
1595878858,-0.5237,0.8647,0.1578,-0.3659,0.2439,-1.6463
1595878858,-0.5231,0.8629,0.1594,-0.4268,0.1220,-1.7073
1595878858,-0.5245,0.8605,0.1617,-0.4878,0.1220,-1.0976
1595878858,-0.5227,0.8651,0.1599,-0.3049,0.0000,-0.1829
1595878858,-0.5232,0.8682,0.1586,-0.1829,-0.0610,1.0366
1595878858,-0.5211,0.8663,0.1608,-0.1829,-0.1829,1.5854
1595878858,-0.5209,0.8680,0.1609,-0.1220,-0.2439,1.3415
1595878858,-0.5195,0.8688,0.1599,-0.1220,-0.1829,0.7927
1595878858,-0.5195,0.8704,0.1566,-0.2439,-0.0610,0.1220
1595878858,-0.5231,0.8673,0.1610,-0.3659,0.0610,-0.7317
1595878858,-0.5228,0.8640,0.1609,-0.4268,0.1220,-1.2195
1595878858,-0.5224,0.8633,0.1581,-0.3659,0.1829,-1.2805
1595878858,-0.5236,0.8619,0.1615,-0.3659,0.0610,-1.0366
1595878858,-0.5236,0.8642,0.1603,-0.3659,0.0610,-0.4268
1595878858,-0.5214,0.8645,0.1580,-0.2439,-0.0610,0.2439
1595878858,-0.5206,0.8663,0.1597,-0.1220,-0.1829,1.0366
1595878858,-0.5204,0.8683,0.1646,-0.1829,-0.2439,1.2805
1595878858,-0.5196,0.8674,0.1640,-0.1220,-0.1220,0.9756
1595878858,-0.5209,0.8672,0.1587,-0.1829,0.0000,0.3049
1595878858,-0.5233,0.8675,0.1573,-0.3049,0.0610,-0.4268
1595878858,-0.5220,0.8654,0.1592,-0.3659,0.0610,-0.9756
1595878858,-0.5237,0.8655,0.1588,-0.3659,0.1220,-1.0976
1595878858,-0.5234,0.8638,0.1602,-0.3659,0.1829,-0.9146
1595878858,-0.5243,0.8649,0.1605,-0.3049,0.1220,-0.7317
1595878858,-0.5223,0.8643,0.1622,-0.3049,0.0000,-0.3049
1595878858,-0.5231,0.8652,0.1589,-0.2439,-0.0610,0.2439
1595878858,-0.5220,0.8664,0.1591,-0.2439,-0.0610,0.6707
1595878858,-0.5201,0.8652,0.1614,-0.1220,-0.1220,0.9146
1595878858,-0.5197,0.8668,0.1604,-0.1220,-0.1220,0.7927
1595878858,-0.5209,0.8673,0.1604,-0.3049,-0.0610,0.4878
1595878858,-0.5208,0.8649,0.1598,-0.1829,0.0610,-0.0610
1595878858,-0.5213,0.8654,0.1570,-0.3049,0.0610,-0.7317
1595878858,-0.5219,0.8637,0.1575,-0.3049,0.0000,-1.0976
1595878858,-0.5219,0.8634,0.1576,-0.3659,0.1829,-1.0976
1595878858,-0.5233,0.8626,0.1616,-0.3659,0.0610,-0.7927
1595878858,-0.5235,0.8624,0.1626,-0.3659,0.0000,-0.2439
1595878858,-0.5228,0.8648,0.1611,-0.2439,0.0000,0.1220
1595878858,-0.5208,0.8646,0.1630,-0.1829,-0.1220,0.5488
1595878858,-0.5218,0.8678,0.1597,-0.2439,-0.1220,0.8537
1595878858,-0.5202,0.8676,0.1577,-0.1829,-0.0610,0.9146
1595878858,-0.5192,0.8646,0.1601,-0.3049,-0.0610,0.5488
1595878858,-0.5196,0.8661,0.1641,-0.3659,0.0610,-0.1220
1595878858,-0.5233,0.8660,0.1606,-0.3659,0.1220,-0.7927
1595878858,-0.5226,0.8661,0.1573,-0.3659,0.1220,-1.1585
1595878858,-0.5242,0.8628,0.1566,-0.4268,0.1220,-1.2195
1595878858,-0.5241,0.8649,0.1614,-0.3659,0.0610,-0.7927
1595878858,-0.5226,0.8645,0.1594,-0.3049,-0.0610,-0.1220
1595878858,-0.5204,0.8642,0.1612,-0.3049,-0.1829,0.4878
1595878858,-0.5219,0.8659,0.1620,-0.2439,-0.1829,0.7927
1595878858,-0.5217,0.8671,0.1593,-0.1829,-0.0610,0.9146
1595878858,-0.5192,0.8683,0.1567,-0.1220,-0.1220,0.6098
1595878858,-0.5200,0.8687,0.1583,-0.2439,0.0000,0.1220
1595878858,-0.5190,0.8675,0.1611,-0.3049,0.1220,-0.3659
1595878858,-0.5234,0.8658,0.1599,-0.4268,0.1220,-0.7927
1595878858,-0.5240,0.8646,0.1580,-0.4268,0.1829,-1.0366
1595878858,-0.5207,0.8643,0.1602,-0.3049,0.0610,-0.9756
1595878858,-0.5220,0.8633,0.1588,-0.3049,0.0610,-0.5488
1595878858,-0.5224,0.8634,0.1564,-0.2439,-0.0610,0.1220
1595878858,-0.5211,0.8659,0.1597,-0.2439,-0.0610,0.6707
1595878858,-0.5212,0.8668,0.1625,-0.1220,-0.0610,0.9756
1595878858,-0.5206,0.8683,0.1580,-0.1829,-0.0610,0.7317
1595878858,-0.5194,0.8688,0.1586,-0.2439,0.0000,0.2439
1595878859,-0.5226,0.8679,0.1599,-0.2439,0.0000,-0.3049
1595878859,-0.5214,0.8651,0.1594,-0.3049,0.0000,-0.4878
1595878859,-0.5219,0.8642,0.1576,-0.3049,0.0610,-0.7317
1595878859,-0.5233,0.8644,0.1616,-0.2439,0.0610,-0.7927
1595878859,-0.5209,0.8641,0.1592,-0.3049,0.0610,-0.6707
1595878859,-0.5216,0.8651,0.1603,-0.3049,0.0610,-0.4268
1595878859,-0.5219,0.8631,0.1584,-0.3049,0.0610,0.0000
1595878859,-0.5220,0.8658,0.1617,-0.1829,-0.0610,0.4268
1595878859,-0.5217,0.8668,0.1633,-0.1829,-0.1829,0.7317
1595878859,-0.5207,0.8669,0.1620,-0.2439,-0.1220,0.8537
1595878859,-0.5198,0.8665,0.1601,-0.1829,-0.1220,0.4878
1595878859,-0.5229,0.8677,0.1596,-0.2439,0.0610,0.0610
1595878859,-0.5227,0.8661,0.1563,-0.3049,0.0610,-0.3659
1595878859,-0.5213,0.8641,0.1586,-0.3049,0.1829,-0.8537
1595878859,-0.5222,0.8644,0.1588,-0.3049,0.1220,-0.9756
1595878859,-0.5232,0.8627,0.1589,-0.3659,0.0000,-0.8537
1595878859,-0.5236,0.8619,0.1603,-0.3049,0.0000,-0.6098
1595878859,-0.5215,0.8640,0.1583,-0.1829,0.0000,0.0000
1595878859,-0.5220,0.8672,0.1599,-0.1829,-0.0610,0.6098
1595878859,-0.5196,0.8683,0.1586,-0.1829,-0.1220,0.9146
1595878859,-0.5207,0.8668,0.1587,-0.1220,-0.0610,0.8537
1595878859,-0.5208,0.8683,0.1596,-0.1829,-0.1220,0.6098
1595878859,-0.5217,0.8666,0.1613,-0.2439,0.0000,-0.1220
1595878859,-0.5231,0.8658,0.1605,-0.3049,0.0610,-0.8537
1595878859,-0.5229,0.8666,0.1588,-0.3049,0.1220,-1.2195
1595878859,-0.5242,0.8657,0.1600,-0.3659,0.0610,-1.0366
1595878859,-0.5229,0.8660,0.1634,-0.3049,0.0610,-0.6707
1595878859,-0.5207,0.8646,0.1619,-0.2439,0.0000,-0.1220
1595878859,-0.5212,0.8640,0.1600,-0.2439,-0.1220,0.3659
1595878859,-0.5225,0.8663,0.1599,-0.2439,-0.1220,0.7317
1595878859,-0.5208,0.8674,0.1601,-0.2439,-0.1220,0.7927
1595878859,-0.5206,0.8670,0.1592,-0.1829,-0.0610,0.5488
1595878859,-0.5205,0.8672,0.1602,-0.2439,-0.0610,0.2439
1595878859,-0.5197,0.8663,0.1592,-0.2439,0.0610,-0.3049
1595878859,-0.5234,0.8629,0.1599,-0.3659,0.1220,-0.7927
1595878859,-0.5226,0.8657,0.1588,-0.4268,0.1220,-0.9756
1595878859,-0.5219,0.8656,0.1594,-0.3659,0.1220,-0.7927
1595878859,-0.5223,0.8655,0.1596,-0.2439,0.0610,-0.3659
1595878859,-0.5226,0.8663,0.1595,-0.1829,0.0000,0.1220
1595878859,-0.5215,0.8657,0.1593,-0.2439,-0.0610,0.5488
1595878859,-0.5200,0.8666,0.1589,-0.3049,-0.0610,0.6098
1595878859,-0.5200,0.8687,0.1582,-0.2439,-0.0610,0.4878
1595878859,-0.5212,0.8680,0.1603,-0.1829,-0.1220,0.2439
1595878859,-0.5221,0.8653,0.1605,-0.3049,-0.0610,0.0610
1595878859,-0.5210,0.8658,0.1611,-0.3659,0.0000,-0.2439
1595878859,-0.5212,0.8660,0.1602,-0.2439,0.0610,-0.5488
1595878859,-0.5240,0.8658,0.1611,-0.1829,0.0610,-0.6707
1595878859,-0.5214,0.8645,0.1586,-0.3049,0.1220,-0.6707
1595878859,-0.5219,0.8633,0.1593,-0.4268,0.0610,-0.4878
1595878859,-0.5209,0.8647,0.1592,-0.3049,0.0000,-0.1220
1595878859,-0.5211,0.8668,0.1609,-0.3049,-0.0610,0.3659
1595878859,-0.5220,0.8672,0.1620,-0.2439,-0.1220,0.7317
1595878859,-0.5207,0.8659,0.1597,-0.2439,-0.1220,0.7927
1595878859,-0.5216,0.8666,0.1586,-0.1829,-0.0610,0.6098
1595878859,-0.5217,0.8674,0.1595,-0.3049,-0.1220,0.0610
1595878859,-0.5202,0.8676,0.1580,-0.3049,0.0610,-0.4268
1595878859,-0.5239,0.8662,0.1598,-0.3659,0.0610,-0.7927
1595878859,-0.5231,0.8657,0.1566,-0.4268,0.0000,-0.8537
1595878859,-0.5232,0.8630,0.1578,-0.3659,0.1220,-0.7317
1595878859,-0.5229,0.8622,0.1602,-0.3659,0.0000,-0.4268
1595878859,-0.5223,0.8649,0.1605,-0.3659,0.0000,0.0610
1595878859,-0.5221,0.8663,0.1600,-0.2439,-0.0610,0.6707
1595878859,-0.5197,0.8680,0.1603,-0.1829,-0.1829,0.9146
1595878859,-0.5204,0.8708,0.1596,-0.1829,-0.1220,0.7927
1595878859,-0.5204,0.8691,0.1596,-0.1829,-0.1220,0.4268
1595878859,-0.5208,0.8674,0.1602,-0.1829,0.0000,-0.1829
1595878859,-0.5208,0.8665,0.1589,-0.3049,0.1829,-0.6098
1595878859,-0.5225,0.8666,0.1597,-0.2439,0.0610,-0.8537
1595878859,-0.5229,0.8627,0.1609,-0.2439,0.0610,-0.7927
1595878859,-0.5222,0.8632,0.1599,-0.3049,0.0000,-0.5488
1595878859,-0.5219,0.8649,0.1613,-0.3049,-0.0610,-0.1829
1595878859,-0.5215,0.8669,0.1589,-0.2439,-0.0610,0.2439
1595878859,-0.5216,0.8657,0.1599,-0.1829,-0.0610,0.5488
1595878859,-0.5214,0.8681,0.1617,-0.1829,-0.1829,0.6707
1595878859,-0.5201,0.8676,0.1617,-0.2439,-0.0610,0.5488
1595878859,-0.5215,0.8680,0.1584,-0.2439,-0.0610,0.2439
1595878859,-0.5227,0.8663,0.1591,-0.2439,0.0000,-0.2439
1595878859,-0.5219,0.8660,0.1587,-0.3659,0.0610,-0.6098
1595878859,-0.5236,0.8655,0.1581,-0.3049,0.1220,-0.7927
1595878859,-0.5217,0.8651,0.1584,-0.3659,0.0610,-0.6098
1595878859,-0.5239,0.8660,0.1606,-0.3049,0.0610,-0.3659
1595878859,-0.5228,0.8657,0.1613,-0.3049,-0.0610,0.1220
1595878859,-0.5214,0.8652,0.1598,-0.1220,-0.0610,0.3659
1595878859,-0.5212,0.8669,0.1602,-0.1220,0.0000,0.4878
1595878859,-0.5200,0.8680,0.1581,-0.2439,0.0000,0.3659
1595878859,-0.5201,0.8651,0.1577,-0.2439,0.0000,0.2439
1595878859,-0.5204,0.8665,0.1620,-0.3049,0.0000,0.0000
1595878859,-0.5202,0.8676,0.1617,-0.3049,0.0000,-0.2439
1595878859,-0.5229,0.8652,0.1589,-0.3049,0.0000,-0.4878
1595878859,-0.5227,0.8646,0.1592,-0.3049,0.0610,-0.5488
1595878859,-0.5234,0.8669,0.1605,-0.2439,0.0610,-0.4878
1595878859,-0.5220,0.8659,0.1602,-0.3049,0.0610,-0.3659
1595878859,-0.5233,0.8655,0.1584,-0.3049,0.0610,-0.0610
1595878859,-0.5200,0.8673,0.1596,-0.3659,-0.0610,0.2439
1595878859,-0.5212,0.8641,0.1619,-0.2439,-0.0610,0.4268
1595878859,-0.5194,0.8664,0.1579,-0.2439,-0.0610,0.3659
1595878859,-0.5184,0.8666,0.1593,-0.1829,-0.0610,0.3049
1595878859,-0.5209,0.8640,0.1586,-0.2439,0.0000,0.0610
1595878859,-0.5217,0.8662,0.1580,-0.3049,-0.0610,-0.1829
1595878859,-0.5210,0.8652,0.1595,-0.4268,-0.1220,-0.4878
1595878859,-0.5223,0.8661,0.1576,-0.2439,0.0000,-0.6098
1595878860,-0.5220,0.8660,0.1582,-0.3049,0.0610,-0.7317
1595878860,-0.5231,0.8655,0.1588,-0.4268,0.0000,-0.4878
1595878860,-0.5219,0.8652,0.1625,-0.2439,0.0610,-0.0610
1595878860,-0.5209,0.8660,0.1603,-0.1829,0.0000,0.2439
1595878860,-0.5216,0.8658,0.1617,-0.2439,0.0000,0.4878
1595878860,-0.5215,0.8665,0.1625,-0.1829,-0.1220,0.5488
1595878860,-0.5215,0.8663,0.1594,-0.1220,-0.1220,0.3659
1595878860,-0.5214,0.8666,0.1586,-0.2439,0.0000,-0.1220
1595878860,-0.5208,0.8670,0.1599,-0.3659,0.0000,-0.3659
1595878860,-0.5216,0.8662,0.1588,-0.3659,0.0000,-0.5488
1595878860,-0.5229,0.8644,0.1604,-0.3049,0.0000,-0.7317
1595878860,-0.5242,0.8654,0.1597,-0.2439,0.0610,-0.4878
1595878860,-0.5237,0.8646,0.1627,-0.3049,0.0610,-0.3049
1595878860,-0.5219,0.8654,0.1592,-0.2439,-0.0610,-0.0610
1595878860,-0.5206,0.8665,0.1588,-0.2439,-0.0610,0.3049
1595878860,-0.5214,0.8675,0.1580,-0.1829,-0.1220,0.4878
1595878860,-0.5197,0.8698,0.1613,-0.1829,-0.0610,0.4878
1595878860,-0.5198,0.8650,0.1613,-0.1829,-0.0610,0.1829
1595878860,-0.5198,0.8646,0.1605,-0.1829,0.0000,-0.1829
1595878860,-0.5224,0.8672,0.1615,-0.2439,-0.0610,-0.4268
1595878860,-0.5222,0.8658,0.1587,-0.3049,0.0000,-0.6098
1595878860,-0.5225,0.8646,0.1588,-0.3049,0.0610,-0.4878
1595878860,-0.5224,0.8648,0.1606,-0.1829,0.0000,-0.2439
1595878860,-0.5216,0.8650,0.1599,-0.3049,0.0000,-0.0610
1595878860,-0.5214,0.8645,0.1580,-0.2439,0.0610,0.0000
1595878860,-0.5212,0.8651,0.1555,-0.3049,-0.0610,0.0610
1595878860,-0.5229,0.8654,0.1602,-0.2439,-0.1220,0.1829
1595878860,-0.5224,0.8652,0.1620,-0.1829,-0.0610,0.3659
1595878860,-0.5200,0.8665,0.1590,-0.2439,-0.0610,0.2439
1595878860,-0.5201,0.8651,0.1603,-0.2439,-0.0610,0.0000
1595878860,-0.5208,0.8672,0.1611,-0.2439,0.0000,-0.2439
1595878860,-0.5229,0.8653,0.1597,-0.3659,0.0610,-0.5488
1595878860,-0.5214,0.8651,0.1597,-0.3049,0.0610,-0.6707
1595878860,-0.5226,0.8644,0.1608,-0.3049,0.1220,-0.5488
1595878860,-0.5226,0.8666,0.1591,-0.3049,0.0000,-0.1829
1595878860,-0.5214,0.8658,0.1616,-0.2439,-0.0610,0.1220
1595878860,-0.5210,0.8647,0.1609,-0.2439,-0.0610,0.4268
1595878860,-0.5214,0.8672,0.1600,-0.1829,0.0000,0.6098
1595878860,-0.5216,0.8669,0.1601,-0.2439,-0.0610,0.4268
1595878860,-0.5223,0.8657,0.1595,-0.2439,0.0000,0.1829
1595878860,-0.5205,0.8669,0.1594,-0.3049,0.0000,-0.1829
1595878860,-0.5217,0.8665,0.1573,-0.2439,0.0610,-0.5488
1595878860,-0.5203,0.8642,0.1598,-0.3049,0.0610,-0.7317
1595878860,-0.5228,0.8633,0.1620,-0.3659,0.0610,-0.6707
1595878860,-0.5233,0.8637,0.1594,-0.3659,0.0000,-0.4268
1595878860,-0.5222,0.8637,0.1587,-0.3049,0.0000,-0.0610
1595878860,-0.5213,0.8630,0.1623,-0.2439,-0.0610,0.3659
1595878860,-0.5217,0.8660,0.1627,-0.2439,-0.1220,0.5488
1595878860,-0.5220,0.8668,0.1587,-0.2439,-0.0610,0.5488
1595878860,-0.5203,0.8652,0.1581,-0.1829,-0.0610,0.2439
1595878860,-0.5223,0.8657,0.1600,-0.2439,0.0000,-0.0610
1595878860,-0.5244,0.8677,0.1606,-0.3049,0.0000,-0.3659
1595878860,-0.5222,0.8670,0.1583,-0.3659,0.0000,-0.5488
1595878860,-0.5219,0.8647,0.1586,-0.3659,0.0000,-0.6707
1595878860,-0.5226,0.8636,0.1606,-0.2439,0.0000,-0.5488
1595878860,-0.5226,0.8640,0.1585,-0.3049,0.0610,-0.2439
1595878860,-0.5222,0.8645,0.1611,-0.2439,-0.0610,0.1220
1595878860,-0.5219,0.8660,0.1620,-0.3049,-0.0610,0.4268
1595878860,-0.5248,0.8671,0.1606,-0.2439,-0.0610,0.4878
1595878860,-0.5226,0.8661,0.1616,-0.2439,-0.1220,0.2439
1595878860,-0.5191,0.8665,0.1594,-0.3049,0.0000,0.0000
1595878860,-0.5209,0.8657,0.1602,-0.3049,0.0000,-0.1829
1595878860,-0.5236,0.8638,0.1595,-0.3049,0.0000,-0.3049
1595878860,-0.5216,0.8663,0.1593,-0.3659,0.0610,-0.4268
1595878860,-0.5222,0.8647,0.1570,-0.3049,0.0000,-0.3659
1595878860,-0.5233,0.8638,0.1589,-0.1829,-0.0610,-0.3049
1595878860,-0.5237,0.8656,0.1604,-0.1829,0.0000,-0.1220
1595878860,-0.5215,0.8667,0.1595,-0.1829,-0.0610,0.0000
1595878860,-0.5222,0.8675,0.1617,-0.2439,-0.0610,0.1829
1595878860,-0.5208,0.8653,0.1599,-0.3049,0.0000,0.2439
1595878860,-0.5231,0.8676,0.1619,-0.2439,0.0000,0.1829
1595878860,-0.5228,0.8673,0.1613,-0.3049,-0.0610,0.1220
1595878860,-0.5212,0.8674,0.1604,-0.3659,0.0000,-0.0610
1595878860,-0.5233,0.8653,0.1595,-0.3049,0.0000,-0.3659
1595878860,-0.5228,0.8651,0.1580,-0.3049,0.0000,-0.4268
1595878860,-0.5218,0.8650,0.1601,-0.3049,0.0000,-0.3659
1595878860,-0.5207,0.8643,0.1592,-0.3659,-0.0610,-0.3049
1595878860,-0.5215,0.8647,0.1589,-0.3049,0.0000,-0.1220
1595878860,-0.5217,0.8647,0.1591,-0.2439,-0.0610,0.0610
1595878860,-0.5221,0.8648,0.1600,-0.2439,-0.1220,0.1829
1595878860,-0.5204,0.8644,0.1603,-0.1829,0.0000,0.3049
1595878860,-0.5215,0.8661,0.1588,-0.3049,-0.0610,0.1829
1595878860,-0.5214,0.8669,0.1606,-0.3659,0.0610,0.0000
1595878860,-0.5200,0.8670,0.1595,-0.3049,0.0610,-0.1220
1595878860,-0.5217,0.8651,0.1604,-0.3049,0.0610,-0.3659
1595878860,-0.5212,0.8664,0.1577,-0.3049,0.0000,-0.3659
1595878860,-0.5214,0.8665,0.1584,-0.2439,0.0610,-0.3049
1595878860,-0.5219,0.8677,0.1605,-0.3049,0.0610,-0.2439
1595878860,-0.5207,0.8641,0.1613,-0.3659,-0.0610,-0.0610
1595878860,-0.5219,0.8654,0.1583,-0.2439,-0.0610,0.1829
1595878860,-0.5217,0.8663,0.1595,-0.3049,-0.0610,0.1220
1595878860,-0.5204,0.8658,0.1577,-0.2439,-0.0610,0.0610
1595878860,-0.5203,0.8662,0.1591,-0.1829,-0.0610,0.1220
1595878860,-0.5219,0.8661,0.1598,-0.2439,-0.1220,-0.0610
1595878860,-0.5218,0.8655,0.1610,-0.3049,0.0000,-0.1829
1595878860,-0.5211,0.8654,0.1594,-0.3049,0.0000,-0.3049
1595878860,-0.5229,0.8672,0.1597,-0.2439,0.0000,-0.3049
1595878860,-0.5214,0.8657,0.1625,-0.2439,0.0000,-0.3659
1595878860,-0.5206,0.8650,0.1597,-0.2439,-0.0610,-0.2439
1595878860,-0.5228,0.8668,0.1583,-0.2439,-0.0610,-0.0610
1595878860,-0.5222,0.8669,0.1613,-0.3659,-0.1220,0.0610
1595878860,-0.5226,0.8661,0.1588,-0.2439,-0.0610,0.1220
1595878861,-0.5209,0.8656,0.1611,-0.2439,0.0610,0.0610
1595878861,-0.5203,0.8648,0.1603,-0.1220,0.0000,0.0610
1595878861,-0.5206,0.8661,0.1606,-0.1829,0.0000,-0.0610
1595878861,-0.5215,0.8655,0.1600,-0.3049,-0.0610,-0.0610
1595878861,-0.5226,0.8663,0.1586,-0.2439,0.0000,-0.1220
1595878861,-0.5216,0.8647,0.1602,-0.3049,0.0000,-0.2439
1595878861,-0.5242,0.8655,0.1578,-0.3049,0.0000,-0.4268
1595878861,-0.5212,0.8647,0.1605,-0.2439,-0.0610,-0.4268
1595878861,-0.5218,0.8645,0.1606,-0.2439,0.0000,-0.2439
1595878861,-0.5226,0.8653,0.1600,-0.3049,-0.0610,0.0000
1595878861,-0.5221,0.8656,0.1614,-0.1829,-0.0610,0.2439
1595878861,-0.5184,0.8662,0.1597,-0.2439,0.0000,0.3659
1595878861,-0.5225,0.8669,0.1588,-0.1829,-0.0610,0.3659
1595878861,-0.5212,0.8635,0.1579,-0.1829,-0.0610,0.1220
1595878861,-0.5212,0.8639,0.1588,-0.3049,0.0610,-0.2439
1595878861,-0.5213,0.8649,0.1598,-0.3659,0.0610,-0.3659
1595878861,-0.5225,0.8651,0.1616,-0.3659,0.0610,-0.4878
1595878861,-0.5211,0.8635,0.1599,-0.3049,0.0000,-0.3659
1595878861,-0.5217,0.8652,0.1599,-0.2439,0.0000,-0.2439
1595878861,-0.5214,0.8665,0.1599,-0.2439,0.0000,0.0000
1595878861,-0.5223,0.8660,0.1599,-0.3049,-0.0610,0.3049
1595878861,-0.5223,0.8672,0.1608,-0.3049,0.0000,0.2439
1595878861,-0.5225,0.8651,0.1599,-0.3049,0.0000,0.1220
1595878861,-0.5207,0.8645,0.1612,-0.3049,0.0000,0.0610
1595878861,-0.5225,0.8654,0.1588,-0.2439,0.0610,-0.2439
1595878861,-0.5209,0.8655,0.1584,-0.2439,0.0000,-0.3049
1595878861,-0.5222,0.8662,0.1597,-0.3049,0.0610,-0.2439
1595878861,-0.5206,0.8647,0.1600,-0.3049,0.0610,-0.1829
1595878861,-0.5237,0.8667,0.1602,-0.3049,0.0000,-0.1220
1595878861,-0.5219,0.8647,0.1572,-0.3049,-0.0610,-0.0610
1595878861,-0.5213,0.8663,0.1599,-0.2439,0.0000,-0.0610
1595878861,-0.5218,0.8672,0.1599,-0.2439,-0.0610,0.0610
1595878861,-0.5217,0.8668,0.1578,-0.2439,-0.0610,0.0610
1595878861,-0.5216,0.8666,0.1594,-0.3659,0.0000,0.1220
1595878861,-0.5225,0.8642,0.1599,-0.3049,-0.0610,0.0610
1595878861,-0.5231,0.8660,0.1624,-0.3049,0.0610,-0.1829
1595878861,-0.5210,0.8679,0.1608,-0.3659,0.0000,-0.1829
1595878861,-0.5228,0.8651,0.1580,-0.3049,-0.0610,-0.1829
1595878861,-0.5214,0.8648,0.1588,-0.3659,0.0000,-0.1829
1595878861,-0.5217,0.8644,0.1617,-0.3049,0.0000,-0.0610
1595878861,-0.5217,0.8666,0.1605,-0.3049,0.0000,0.0610
1595878861,-0.5226,0.8647,0.1609,-0.3049,-0.0610,0.0610
1595878861,-0.5212,0.8645,0.1588,-0.2439,0.0000,-0.1220
1595878861,-0.5197,0.8675,0.1613,-0.2439,-0.0610,-0.1829
1595878861,-0.5210,0.8663,0.1622,-0.3049,0.0000,-0.1220
1595878861,-0.5206,0.8668,0.1603,-0.2439,-0.0610,0.0000
1595878861,-0.5200,0.8657,0.1586,-0.3049,0.0000,0.0000
1595878861,-0.5206,0.8671,0.1599,-0.2439,0.0000,-0.0610
1595878861,-0.5222,0.8665,0.1594,-0.2439,0.0610,-0.1220
1595878861,-0.5221,0.8659,0.1600,-0.3049,0.0000,-0.2439
1595878861,-0.5219,0.8676,0.1610,-0.3659,0.0000,-0.3049
1595878861,-0.5233,0.8666,0.1615,-0.3049,0.0610,-0.3049
1595878861,-0.5229,0.8651,0.1608,-0.3049,0.0000,-0.0610
1595878861,-0.5219,0.8665,0.1617,-0.3049,-0.0610,0.0000
1595878861,-0.5236,0.8673,0.1591,-0.3049,0.0000,0.1829
1595878861,-0.5211,0.8657,0.1608,-0.2439,0.0000,0.1829
1595878861,-0.5203,0.8663,0.1600,-0.2439,0.0610,-0.1220
1595878861,-0.5225,0.8655,0.1616,-0.2439,0.0610,-0.1829
1595878861,-0.5215,0.8674,0.1594,-0.3049,0.0000,-0.1829
1595878861,-0.5212,0.8666,0.1595,-0.3049,0.0000,-0.2439
1595878861,-0.5225,0.8649,0.1599,-0.2439,-0.0610,-0.2439
1595878861,-0.5216,0.8663,0.1605,-0.2439,0.0000,-0.0610
1595878861,-0.5210,0.8653,0.1588,-0.3049,0.0610,0.0000
1595878861,-0.5209,0.8653,0.1600,-0.2439,0.0000,0.0000
1595878861,-0.5234,0.8651,0.1613,-0.2439,0.0000,-0.0610
1595878861,-0.5216,0.8663,0.1605,-0.2439,0.0000,-0.1829
1595878861,-0.5217,0.8665,0.1600,-0.3049,-0.0610,-0.1220
1595878861,-0.5226,0.8653,0.1586,-0.3049,0.0610,-0.1220
1595878861,-0.5206,0.8649,0.1598,-0.2439,0.0000,0.0000
1595878861,-0.5192,0.8666,0.1595,-0.3049,-0.0610,0.0610
1595878861,-0.5211,0.8680,0.1579,-0.2439,0.0000,0.0000
1595878861,-0.5200,0.8647,0.1607,-0.1829,-0.0610,-0.1829
1595878861,-0.5227,0.8676,0.1583,-0.1829,0.0000,-0.3049
1595878861,-0.5211,0.8676,0.1574,-0.3049,0.0610,-0.3659
1595878861,-0.5228,0.8663,0.1587,-0.3049,0.0610,-0.3049
1595878861,-0.5228,0.8624,0.1608,-0.2439,-0.0610,-0.1829
1595878861,-0.5220,0.8652,0.1615,-0.2439,-0.0610,0.0000
1595878861,-0.5226,0.8660,0.1613,-0.2439,0.0000,0.1220
1595878861,-0.5219,0.8649,0.1623,-0.2439,-0.0610,0.1829
1595878861,-0.5201,0.8651,0.1609,-0.3049,0.0000,0.1220
1595878861,-0.5214,0.8666,0.1620,-0.1829,-0.0610,-0.1220
1595878861,-0.5201,0.8665,0.1582,-0.2439,0.0000,-0.2439
1595878861,-0.5203,0.8647,0.1600,-0.2439,0.0000,-0.3659
1595878861,-0.5224,0.8651,0.1586,-0.2439,0.0000,-0.4268
1595878861,-0.5236,0.8646,0.1585,-0.3049,0.0000,-0.3049
1595878861,-0.5209,0.8636,0.1625,-0.1829,-0.0610,-0.0610
1595878861,-0.5214,0.8661,0.1630,-0.2439,0.0000,0.1220
1595878861,-0.5209,0.8668,0.1594,-0.2439,-0.0610,0.2439
1595878861,-0.5211,0.8655,0.1589,-0.3049,-0.0610,0.1829
1595878861,-0.5200,0.8658,0.1617,-0.2439,-0.0610,0.0000
1595878861,-0.5219,0.8666,0.1619,-0.2439,0.0000,-0.1829
1595878861,-0.5229,0.8644,0.1606,-0.2439,0.0000,-0.3659
1595878861,-0.5222,0.8659,0.1609,-0.3659,0.0610,-0.4268
1595878861,-0.5207,0.8633,0.1604,-0.3659,0.0000,-0.3049
1595878861,-0.5230,0.8644,0.1600,-0.3659,-0.1220,-0.1220
1595878861,-0.5233,0.8667,0.1616,-0.3049,-0.0610,0.1220
1595878861,-0.5220,0.8663,0.1603,-0.3049,-0.0610,0.1829
1595878861,-0.5214,0.8657,0.1589,-0.3659,-0.0610,0.1220
1595878861,-0.5217,0.8661,0.1592,-0.3049,-0.0610,0.1220
1595878862,-0.5204,0.8658,0.1603,-0.2439,0.0000,-0.0610
1595878862,-0.5221,0.8633,0.1580,-0.2439,0.0610,-0.3049
1595878862,-0.5224,0.8653,0.1576,-0.3049,0.0000,-0.3049
1595878862,-0.5214,0.8654,0.1586,-0.3049,0.0610,-0.3049
1595878862,-0.5232,0.8654,0.1597,-0.2439,0.0610,-0.2439
1595878862,-0.5234,0.8657,0.1590,-0.2439,0.0000,-0.1220
1595878862,-0.5222,0.8668,0.1591,-0.2439,0.0000,0.1220
1595878862,-0.5209,0.8638,0.1602,-0.2439,0.0610,0.1220
1595878862,-0.5228,0.8647,0.1611,-0.3049,-0.0610,0.0610
1595878862,-0.5217,0.8648,0.1594,-0.3659,-0.0610,-0.0610
1595878862,-0.5212,0.8664,0.1581,-0.3049,-0.0610,-0.1829
1595878862,-0.5229,0.8640,0.1599,-0.3659,0.0610,-0.1220
1595878862,-0.5212,0.8664,0.1611,-0.3049,0.0000,-0.1220
1595878862,-0.5224,0.8658,0.1589,-0.3049,-0.0610,0.0000
1595878862,-0.5208,0.8659,0.1594,-0.2439,0.0610,-0.0610
1595878862,-0.5206,0.8647,0.1592,-0.1829,0.0000,-0.1220
1595878862,-0.5208,0.8654,0.1595,-0.3049,0.0000,-0.1220
1595878862,-0.5208,0.8664,0.1586,-0.3659,0.0000,-0.1829
1595878862,-0.5213,0.8654,0.1599,-0.3659,-0.0610,-0.1829
1595878862,-0.5214,0.8651,0.1608,-0.3049,0.0610,-0.1829
1595878862,-0.5218,0.8664,0.1604,-0.3049,0.0000,0.0000
1595878862,-0.5204,0.8671,0.1605,-0.2439,-0.0610,0.0610
1595878862,-0.5222,0.8655,0.1593,-0.2439,-0.1220,0.1220
1595878862,-0.5209,0.8665,0.1602,-0.3049,-0.0610,0.0610
1595878862,-0.5209,0.8651,0.1599,-0.2439,0.0000,0.0000
1595878862,-0.5209,0.8648,0.1599,-0.1829,0.0000,-0.1220
1595878862,-0.5221,0.8663,0.1605,-0.1829,0.0000,-0.2439
1595878862,-0.5224,0.8645,0.1596,-0.2439,0.0610,-0.3659
1595878862,-0.5228,0.8669,0.1585,-0.3049,0.0610,-0.3659
1595878862,-0.5217,0.8647,0.1599,-0.3049,0.0000,-0.2439
1595878862,-0.5228,0.8638,0.1598,-0.2439,0.0000,-0.0610
1595878862,-0.5215,0.8654,0.1591,-0.2439,-0.0610,0.1220
1595878862,-0.5217,0.8654,0.1609,-0.2439,0.0000,0.3049
1595878862,-0.5205,0.8657,0.1619,-0.1829,-0.1220,0.2439
1595878862,-0.5215,0.8635,0.1592,-0.1829,-0.0610,0.0610
1595878862,-0.5231,0.8646,0.1578,-0.2439,-0.0610,-0.1220
1595878862,-0.5230,0.8641,0.1611,-0.3049,-0.0610,-0.3049
1595878862,-0.5225,0.8652,0.1620,-0.2439,0.0610,-0.3659
1595878862,-0.5222,0.8655,0.1611,-0.3049,0.0610,-0.4268
1595878862,-0.5222,0.8667,0.1582,-0.3049,-0.0610,-0.3049
1595878862,-0.5228,0.8657,0.1616,-0.3049,0.0000,-0.1220
1595878862,-0.5225,0.8647,0.1587,-0.2439,-0.1220,0.0610
1595878862,-0.5208,0.8664,0.1598,-0.2439,-0.0610,0.1220
1595878862,-0.5212,0.8654,0.1611,-0.2439,-0.1220,0.1220
1595878862,-0.5198,0.8653,0.1596,-0.1829,-0.0610,0.1829
1595878862,-0.5217,0.8660,0.1603,-0.2439,-0.0610,0.0000
1595878862,-0.5222,0.8663,0.1593,-0.3659,-0.0610,-0.1220
1595878862,-0.5233,0.8671,0.1586,-0.3049,0.0000,-0.3659
1595878862,-0.5234,0.8661,0.1595,-0.3049,0.0610,-0.4268
1595878862,-0.5233,0.8657,0.1597,-0.3659,0.0610,-0.3659
1595878862,-0.5222,0.8643,0.1584,-0.3049,0.0000,-0.2439
1595878862,-0.5227,0.8669,0.1589,-0.1829,-0.0610,0.0000
1595878862,-0.5199,0.8662,0.1600,-0.1829,-0.0610,0.1220
1595878862,-0.5199,0.8660,0.1594,-0.1829,-0.0610,0.3659
1595878862,-0.5218,0.8660,0.1610,-0.3049,0.0000,0.3049
1595878862,-0.5210,0.8657,0.1613,-0.2439,-0.0610,0.1829
1595878862,-0.5208,0.8677,0.1605,-0.3049,-0.1220,-0.1220
1595878862,-0.5227,0.8674,0.1596,-0.2439,0.0000,-0.4268
1595878862,-0.5232,0.8668,0.1599,-0.3049,0.0000,-0.5488
1595878862,-0.5233,0.8655,0.1571,-0.3049,0.0610,-0.5488
1595878862,-0.5234,0.8658,0.1591,-0.2439,0.0000,-0.3659
1595878862,-0.5214,0.8658,0.1594,-0.3049,0.0000,-0.1220
1595878862,-0.5209,0.8647,0.1598,-0.2439,-0.0610,0.1220
1595878862,-0.5217,0.8680,0.1599,-0.3049,-0.0610,0.3659
1595878862,-0.5233,0.8676,0.1592,-0.1829,-0.0610,0.3049
1595878862,-0.5203,0.8669,0.1586,-0.2439,-0.0610,0.2439
1595878862,-0.5203,0.8663,0.1592,-0.3659,0.0000,-0.0610
1595878862,-0.5219,0.8655,0.1599,-0.3659,0.0000,-0.3049
1595878862,-0.5214,0.8666,0.1603,-0.3659,0.0000,-0.3659
1595878862,-0.5220,0.8663,0.1602,-0.3049,0.0610,-0.4878
1595878862,-0.5236,0.8644,0.1608,-0.2439,0.0000,-0.3659
1595878862,-0.5230,0.8661,0.1618,-0.3049,-0.0610,-0.1220
1595878862,-0.5223,0.8671,0.1608,-0.2439,-0.0610,0.0610
1595878862,-0.5217,0.8677,0.1593,-0.2439,-0.1220,0.1829
1595878862,-0.5211,0.8657,0.1594,-0.3659,-0.1220,0.1220
1595878862,-0.5228,0.8646,0.1602,-0.3049,-0.1220,0.0610
1595878862,-0.5226,0.8672,0.1600,-0.2439,0.0000,-0.1220
1595878862,-0.5199,0.8657,0.1614,-0.2439,0.0000,-0.1829
1595878862,-0.5230,0.8649,0.1608,-0.1829,-0.0610,-0.2439
1595878862,-0.5221,0.8661,0.1606,-0.2439,0.0610,-0.2439
1595878862,-0.5240,0.8654,0.1586,-0.3049,-0.0610,-0.2439
1595878862,-0.5227,0.8648,0.1568,-0.3049,-0.1220,-0.1829
1595878862,-0.5206,0.8649,0.1596,-0.3049,-0.0610,-0.0610
1595878862,-0.5226,0.8641,0.1610,-0.2439,-0.0610,-0.1220
1595878862,-0.5219,0.8636,0.1605,-0.3659,-0.0610,-0.0610
1595878862,-0.5192,0.8655,0.1584,-0.2439,-0.0610,0.0000
1595878862,-0.5214,0.8646,0.1598,-0.2439,0.0000,0.0000
1595878862,-0.5226,0.8658,0.1598,-0.2439,-0.0610,0.0000
1595878862,-0.5216,0.8663,0.1600,-0.2439,0.0610,-0.0610
1595878862,-0.5222,0.8665,0.1618,-0.3049,0.1220,-0.1829
1595878862,-0.5225,0.8674,0.1610,-0.3049,0.0000,-0.1829
1595878862,-0.5209,0.8657,0.1617,-0.3659,0.0000,-0.2439
1595878862,-0.5215,0.8653,0.1611,-0.3049,0.0000,-0.1829
1595878862,-0.5211,0.8641,0.1621,-0.1829,-0.0610,-0.0610
1595878862,-0.5217,0.8649,0.1607,-0.3049,-0.0610,0.0000
1595878862,-0.5217,0.8668,0.1587,-0.3049,-0.0610,-0.0610
1595878862,-0.5228,0.8660,0.1603,-0.2439,0.0000,0.0000
1595878862,-0.5214,0.8654,0.1590,-0.3659,-0.0610,-0.1220
1595878862,-0.5209,0.8651,0.1588,-0.2439,-0.0610,-0.1220
1595878862,-0.5201,0.8661,0.1586,-0.1829,-0.1220,-0.1220
1595878862,-0.5203,0.8653,0.1583,-0.3049,0.0000,-0.1829
1595878862,-0.5215,0.8669,0.1593,-0.3049,0.0610,-0.1220
1595878862,-0.5234,0.8647,0.1616,-0.2439,0.0610,-0.0610
1595878862,-0.5240,0.8647,0.1602,-0.3049,-0.0610,-0.1829
1595878863,-0.5222,0.8653,0.1615,-0.3049,0.0000,-0.1220
1595878863,-0.5229,0.8660,0.1606,-0.3659,0.0610,-0.1220
1595878863,-0.5215,0.8661,0.1587,-0.2439,0.0000,-0.0610
1595878863,-0.5203,0.8667,0.1583,-0.2439,-0.0610,0.0000
1595878863,-0.5217,0.8677,0.1603,-0.3049,-0.0610,0.0000
1595878863,-0.5220,0.8666,0.1603,-0.3049,-0.0610,0.0000
1595878863,-0.5194,0.8657,0.1605,-0.3049,0.0610,-0.1220
1595878863,-0.5200,0.8654,0.1618,-0.2439,0.0000,-0.2439
1595878863,-0.5219,0.8647,0.1603,-0.1829,0.0000,-0.2439
1595878863,-0.5228,0.8651,0.1591,-0.3049,0.0000,-0.3049
1595878863,-0.5220,0.8658,0.1606,-0.3049,0.0000,-0.1220
1595878863,-0.5218,0.8639,0.1591,-0.3049,-0.0610,-0.0610
1595878863,-0.5216,0.8649,0.1580,-0.2439,0.0610,0.0000
1595878863,-0.5235,0.8671,0.1603,-0.2439,0.0000,0.0000
1595878863,-0.5219,0.8671,0.1594,-0.2439,-0.0610,-0.1220
1595878863,-0.5229,0.8667,0.1592,-0.3049,-0.1220,-0.1829
1595878863,-0.5237,0.8661,0.1609,-0.3049,-0.0610,-0.1220
1595878863,-0.5208,0.8665,0.1603,-0.2439,-0.0610,0.0000
1595878863,-0.5212,0.8672,0.1598,-0.2439,-0.0610,0.0610
1595878863,-0.5224,0.8653,0.1594,-0.2439,-0.0610,-0.0610
1595878863,-0.5224,0.8655,0.1583,-0.3049,-0.0610,-0.1829
1595878863,-0.5228,0.8668,0.1589,-0.3049,0.0000,-0.3049
1595878863,-0.5233,0.8655,0.1588,-0.3049,0.0610,-0.3049
1595878863,-0.5213,0.8649,0.1600,-0.3049,0.0000,-0.3049
1595878863,-0.5209,0.8666,0.1611,-0.2439,0.0000,-0.0610
1595878863,-0.5217,0.8678,0.1604,-0.2439,-0.0610,0.0610
1595878863,-0.5205,0.8665,0.1601,-0.2439,0.0000,0.1220
1595878863,-0.5211,0.8667,0.1594,-0.1829,0.0000,0.1220
1595878863,-0.5198,0.8661,0.1583,-0.3049,-0.0610,0.0610
1595878863,-0.5221,0.8650,0.1606,-0.3049,-0.0610,-0.1829
1595878863,-0.5241,0.8647,0.1616,-0.2439,0.0000,-0.3049
1595878863,-0.5220,0.8661,0.1580,-0.2439,0.0610,-0.3659
1595878863,-0.5206,0.8658,0.1598,-0.3049,-0.0610,-0.1829
1595878863,-0.5217,0.8670,0.1611,-0.2439,0.0000,-0.0610
1595878863,-0.5228,0.8681,0.1577,-0.2439,0.0000,0.0610
1595878863,-0.5215,0.8664,0.1576,-0.2439,0.0000,0.0610
1595878863,-0.5219,0.8672,0.1594,-0.3049,0.0000,0.0610
1595878863,-0.5215,0.8666,0.1616,-0.2439,0.0610,-0.0610
1595878863,-0.5238,0.8660,0.1589,-0.2439,-0.0610,-0.1829
1595878863,-0.5211,0.8651,0.1614,-0.3049,-0.1220,-0.1220
1595878863,-0.5220,0.8643,0.1595,-0.3049,0.0000,-0.1829
1595878863,-0.5212,0.8651,0.1600,-0.3049,0.0000,0.0610
1595878863,-0.5209,0.8657,0.1581,-0.3659,0.0610,0.0000
1595878863,-0.5215,0.8638,0.1591,-0.3049,0.0000,-0.1829
1595878863,-0.5229,0.8679,0.1605,-0.3049,-0.0610,-0.1829
1595878863,-0.5214,0.8660,0.1603,-0.3049,-0.0610,-0.2439
1595878863,-0.5212,0.8661,0.1583,-0.3659,0.0610,-0.3049
1595878863,-0.5199,0.8664,0.1620,-0.3049,0.0610,-0.1829
1595878863,-0.5204,0.8648,0.1602,-0.2439,0.0000,0.0000
1595878863,-0.5206,0.8651,0.1611,-0.3049,-0.0610,0.1829
1595878863,-0.5212,0.8658,0.1600,-0.3049,-0.1220,0.0000
1595878863,-0.5222,0.8654,0.1606,-0.3049,-0.0610,-0.0610
1595878863,-0.5214,0.8660,0.1605,-0.2439,0.0000,-0.0610
1595878863,-0.5219,0.8645,0.1585,-0.3049,0.0000,-0.3049
1595878863,-0.5211,0.8651,0.1593,-0.3659,0.0000,-0.3659
1595878863,-0.5200,0.8668,0.1593,-0.3049,0.0610,-0.3049
1595878863,-0.5223,0.8668,0.1588,-0.2439,0.0000,-0.1220
1595878863,-0.5228,0.8642,0.1606,-0.1829,-0.0610,0.0000
1595878863,-0.5214,0.8663,0.1589,-0.1829,-0.1220,0.1220
1595878863,-0.5215,0.8691,0.1600,-0.2439,-0.1829,0.2439
1595878863,-0.5204,0.8652,0.1603,-0.1829,-0.1829,0.4268
1595878863,-0.5199,0.8646,0.1600,-0.2439,-0.0610,0.2439
1595878863,-0.5217,0.8666,0.1579,-0.3049,0.0610,-0.2439
1595878863,-0.5237,0.8665,0.1586,-0.3049,0.0610,-0.7927
1595878863,-0.5248,0.8637,0.1606,-0.3049,0.0610,-0.9146
1595878863,-0.5243,0.8640,0.1586,-0.4268,0.1220,-0.6707
1595878863,-0.5222,0.8659,0.1599,-0.2439,-0.0610,-0.1829
1595878863,-0.5212,0.8649,0.1609,-0.1829,0.0000,0.3049
1595878863,-0.5203,0.8661,0.1627,-0.3049,-0.0610,0.6707
1595878863,-0.5199,0.8672,0.1610,-0.2439,-0.0610,0.7927
1595878863,-0.5200,0.8661,0.1613,-0.1220,-0.0610,0.5488
1595878863,-0.5197,0.8641,0.1624,-0.2439,-0.0610,0.0000
1595878863,-0.5211,0.8649,0.1611,-0.3049,0.0610,-0.4268
1595878863,-0.5215,0.8657,0.1588,-0.3659,0.1220,-0.8537
1595878863,-0.5232,0.8642,0.1598,-0.3049,0.0610,-1.0366
1595878863,-0.5229,0.8640,0.1611,-0.3659,0.0000,-0.6707
1595878863,-0.5226,0.8640,0.1598,-0.2439,0.0610,-0.1220
1595878863,-0.5235,0.8652,0.1597,-0.1829,-0.0610,0.4268
1595878863,-0.5201,0.8663,0.1594,-0.1829,-0.0610,0.6707
1595878863,-0.5193,0.8672,0.1616,-0.2439,-0.1220,0.5488
1595878863,-0.5208,0.8666,0.1599,-0.2439,-0.0610,0.2439
1595878863,-0.5220,0.8665,0.1594,-0.2439,0.0610,-0.1829
1595878863,-0.5237,0.8635,0.1599,-0.2439,0.0610,-0.5488
1595878863,-0.5234,0.8646,0.1587,-0.1829,0.0610,-0.7317
1595878863,-0.5214,0.8649,0.1581,-0.3049,0.0610,-0.5488
1595878863,-0.5244,0.8638,0.1592,-0.2439,0.0610,-0.3659
1595878863,-0.5236,0.8640,0.1599,-0.3049,-0.0610,0.0000
1595878863,-0.5203,0.8655,0.1584,-0.3049,-0.0610,0.2439
1595878863,-0.5200,0.8655,0.1624,-0.3049,-0.0610,0.2439
1595878863,-0.5202,0.8642,0.1600,-0.2439,-0.1220,0.4878
1595878863,-0.5201,0.8661,0.1600,-0.2439,-0.0610,0.7317
1595878863,-0.5210,0.8673,0.1623,-0.1829,-0.0610,0.5488
1595878863,-0.5214,0.8670,0.1576,-0.1829,0.0000,-0.0610
1595878863,-0.5211,0.8653,0.1576,-0.3049,0.1220,-0.7317
1595878863,-0.5223,0.8646,0.1590,-0.3049,0.1829,-1.3415
1595878863,-0.5250,0.8619,0.1595,-0.4878,0.1829,-1.5244
1595878863,-0.5244,0.8618,0.1595,-0.3659,0.1220,-1.0976
1595878863,-0.5255,0.8638,0.1606,-0.3049,-0.0610,-0.3659
1595878863,-0.5218,0.8650,0.1589,-0.2439,-0.1220,0.4878
1595878863,-0.5195,0.8664,0.1588,-0.1220,-0.0610,1.1585
1595878863,-0.5184,0.8658,0.1604,-0.1829,-0.1220,1.4024
1595878864,-0.5185,0.8690,0.1579,-0.2439,-0.2439,1.1585
1595878864,-0.5187,0.8680,0.1612,-0.2439,-0.1220,0.6098
1595878864,-0.5202,0.8674,0.1621,-0.2439,-0.0610,-0.1220
1595878864,-0.5212,0.8672,0.1600,-0.4268,0.1220,-0.8537
1595878864,-0.5255,0.8644,0.1597,-0.3049,0.1220,-1.5244
1595878864,-0.5251,0.8629,0.1606,-0.4268,0.1220,-1.6463
1595878864,-0.5239,0.8621,0.1591,-0.3659,0.1829,-1.0976
1595878864,-0.5221,0.8621,0.1570,-0.2439,-0.0610,-0.3049
1595878864,-0.5229,0.8673,0.1611,-0.3049,-0.1220,0.4878
1595878864,-0.5197,0.8671,0.1602,-0.2439,-0.1829,1.2805
1595878864,-0.5188,0.8682,0.1607,-0.0610,-0.1220,1.6463
1595878864,-0.5179,0.8685,0.1608,-0.1220,-0.1829,1.2195
1595878864,-0.5180,0.8663,0.1605,-0.3049,-0.0610,0.1220
1595878864,-0.5214,0.8670,0.1597,-0.2439,0.0610,-0.7317
1595878864,-0.5223,0.8653,0.1600,-0.3659,0.1220,-0.9756
1595878864,-0.5225,0.8638,0.1588,-0.4268,0.1220,-1.1585
1595878864,-0.5231,0.8644,0.1578,-0.3659,0.0610,-1.0976
1595878864,-0.5241,0.8649,0.1592,-0.3659,0.0000,-0.6707
1595878864,-0.5248,0.8641,0.1582,-0.2439,0.0610,-0.2439
1595878864,-0.5206,0.8643,0.1609,-0.2439,-0.0610,0.1220
1595878864,-0.5204,0.8666,0.1617,-0.3049,-0.1220,0.4268
1595878864,-0.5211,0.8664,0.1605,-0.1829,-0.0610,0.8537
1595878864,-0.5201,0.8682,0.1606,-0.1220,-0.0610,1.1585
1595878864,-0.5192,0.8669,0.1573,-0.1829,-0.1220,0.9756
1595878864,-0.5217,0.8655,0.1603,-0.1829,-0.0610,0.1220
1595878864,-0.5207,0.8655,0.1603,-0.2439,0.1220,-0.9146
1595878864,-0.5211,0.8655,0.1591,-0.3659,0.2439,-1.4634
1595878864,-0.5253,0.8641,0.1588,-0.3659,0.1220,-1.4634
1595878864,-0.5243,0.8645,0.1591,-0.2439,0.1220,-0.7927
1595878864,-0.5220,0.8655,0.1593,-0.2439,-0.0610,0.3049
1595878864,-0.5204,0.8659,0.1594,-0.1220,-0.0610,1.0366
1595878864,-0.5216,0.8678,0.1577,-0.0610,-0.1220,1.0366
1595878864,-0.5204,0.8677,0.1597,-0.1220,-0.1220,0.6098
1595878864,-0.5221,0.8663,0.1609,-0.2439,0.0000,-0.1220
1595878864,-0.5240,0.8669,0.1600,-0.4268,0.0610,-0.7317
1595878864,-0.5217,0.8646,0.1626,-0.4268,0.0610,-0.6707
1595878864,-0.5208,0.8631,0.1589,-0.3049,0.0610,-0.3659
1595878864,-0.5192,0.8680,0.1577,-0.3049,-0.0610,0.1220
1595878864,-0.5220,0.8660,0.1584,-0.3049,-0.1220,0.3659
1595878864,-0.5219,0.8668,0.1553,-0.3049,-0.0610,0.1829
1595878864,-0.5234,0.8658,0.1602,-0.2439,0.0000,0.0000
1595878864,-0.5220,0.8659,0.1588,-0.2439,0.0000,-0.3659
1595878864,-0.5223,0.8663,0.1612,-0.3049,0.0610,-0.9756
1595878864,-0.5231,0.8627,0.1614,-0.3049,0.1220,-0.7927
1595878864,-0.5219,0.8654,0.1603,-0.2439,-0.0610,0.3049
1595878864,-0.5198,0.8676,0.1597,-0.2439,-0.1829,1.3415
1595878864,-0.5184,0.8693,0.1606,-0.1829,-0.1829,1.4024
1595878864,-0.5217,0.8677,0.1601,-0.2439,-0.0610,0.5488
1595878864,-0.5217,0.8672,0.1587,-0.3049,0.0000,-0.8537
1595878864,-0.5215,0.8638,0.1642,-0.4268,0.1829,-1.8293
1595878864,-0.5228,0.8601,0.1625,-0.4268,0.1829,-1.7073
1595878864,-0.5235,0.8632,0.1637,-0.3659,0.0610,-0.6707
1595878864,-0.5222,0.8645,0.1610,-0.1829,-0.1829,0.7927
1595878864,-0.5187,0.8677,0.1569,-0.1220,-0.1829,1.5854
1595878864,-0.5205,0.8694,0.1552,-0.1829,-0.1220,1.2805
1595878864,-0.5226,0.8679,0.1540,-0.2439,-0.0610,0.3049
1595878864,-0.5254,0.8641,0.1575,-0.3049,0.0610,-0.9756
1595878864,-0.5258,0.8635,0.1582,-0.3659,0.2439,-1.8902
1595878864,-0.5247,0.8632,0.1596,-0.4878,0.2439,-2.0122
1595878864,-0.5245,0.8618,0.1610,-0.3659,0.1829,-1.2805
1595878864,-0.5231,0.8620,0.1618,-0.3049,0.0000,0.1220
1595878864,-0.5187,0.8634,0.1638,-0.1829,-0.2439,1.6463
1595878864,-0.5166,0.8708,0.1613,0.0000,-0.3049,2.7439
1595878864,-0.5159,0.8718,0.1622,-0.0610,-0.3659,2.7439
1595878864,-0.5189,0.8697,0.1630,-0.1220,-0.1220,1.7073
1595878864,-0.5204,0.8681,0.1591,-0.1829,0.0610,0.1220
1595878864,-0.5233,0.8672,0.1577,-0.3659,0.2439,-1.5244
1595878864,-0.5225,0.8627,0.1574,-0.4878,0.3659,-2.8049
1595878864,-0.5256,0.8618,0.1538,-0.5488,0.3049,-3.2317
1595878864,-0.5271,0.8615,0.1553,-0.5488,0.3659,-2.9268
1595878864,-0.5262,0.8576,0.1608,-0.4878,0.2439,-2.1341
1595878864,-0.5263,0.8599,0.1625,-0.3659,0.0610,-0.4878
1595878864,-0.5214,0.8646,0.1622,-0.1220,-0.2439,1.5854
1595878864,-0.5201,0.8682,0.1640,0.0000,-0.3659,3.1098
1595878864,-0.5171,0.8699,0.1633,0.1220,-0.4268,3.3537
1595878864,-0.5176,0.8716,0.1612,0.0610,-0.3049,2.5610
1595878864,-0.5191,0.8673,0.1586,-0.1220,-0.1220,1.0366
1595878864,-0.5204,0.8666,0.1583,-0.3659,0.0000,-0.6707
1595878864,-0.5212,0.8660,0.1589,-0.3659,0.1220,-1.6463
1595878864,-0.5200,0.8640,0.1611,-0.3659,0.1829,-1.5244
1595878864,-0.5203,0.8679,0.1624,-0.3659,0.1829,-0.9146
1595878864,-0.5217,0.8660,0.1613,-0.3049,0.1829,-0.4878
1595878864,-0.5259,0.8672,0.1571,-0.3049,0.1220,-0.6098
1595878864,-0.5261,0.8635,0.1576,-0.3049,0.1220,-1.1585
1595878864,-0.5256,0.8613,0.1602,-0.3659,0.1220,-1.5244
1595878864,-0.5249,0.8613,0.1609,-0.4878,0.0000,-1.0976
1595878864,-0.5228,0.8640,0.1575,-0.3049,-0.1220,0.0610
1595878864,-0.5187,0.8654,0.1606,-0.1829,-0.2439,1.6463
1595878864,-0.5162,0.8685,0.1625,0.0000,-0.3049,3.1098
1595878864,-0.5175,0.8724,0.1602,0.0000,-0.4268,3.7195
1595878864,-0.5167,0.8745,0.1581,0.0610,-0.3049,2.8049
1595878864,-0.5208,0.8713,0.1570,-0.0610,-0.0610,0.4878
1595878864,-0.5225,0.8669,0.1547,-0.5488,0.2439,-2.6829
1595878864,-0.5264,0.8629,0.1567,-0.7927,0.6098,-5.0610
1595878864,-0.5275,0.8568,0.1600,-0.7927,0.6098,-5.4268
1595878864,-0.5266,0.8539,0.1648,-0.6098,0.3659,-3.5366
1595878864,-0.5240,0.8583,0.1642,-0.2439,0.0000,-0.1220
1595878864,-0.5201,0.8652,0.1631,0.0000,-0.4268,3.2927
1595878864,-0.5161,0.8704,0.1598,0.2439,-0.4878,5.0000
1595878864,-0.5162,0.8749,0.1562,0.1829,-0.4878,4.5732
1595878864,-0.5193,0.8733,0.1573,-0.0610,-0.3049,2.4390
1595878864,-0.5216,0.8694,0.1585,-0.3049,0.0000,-0.6707
1595878865,-0.5235,0.8644,0.1590,-0.4878,0.3049,-3.2927
1595878865,-0.5251,0.8592,0.1575,-0.6098,0.4878,-4.1463
1595878865,-0.5227,0.8593,0.1597,-0.6098,0.4268,-3.2317
1595878865,-0.5232,0.8618,0.1644,-0.4268,0.0610,-1.0366
1595878865,-0.5215,0.8651,0.1628,-0.3049,-0.2439,1.2195
1595878865,-0.5186,0.8685,0.1595,-0.1829,-0.3659,2.5610
1595878865,-0.5190,0.8717,0.1563,-0.1220,-0.3049,2.3780
1595878865,-0.5203,0.8698,0.1561,-0.1220,-0.1829,1.2805
1595878865,-0.5211,0.8685,0.1563,-0.2439,-0.0610,-0.1220
1595878865,-0.5232,0.8676,0.1583,-0.3659,0.0610,-1.0366
1595878865,-0.5218,0.8635,0.1624,-0.3659,0.1220,-1.4634
1595878865,-0.5223,0.8639,0.1642,-0.4268,0.1220,-1.4634
1595878865,-0.5219,0.8629,0.1598,-0.3659,0.0000,-0.7927
1595878865,-0.5219,0.8640,0.1594,-0.3049,0.0000,0.0000
1595878865,-0.5230,0.8657,0.1596,-0.1829,-0.1220,0.4268
1595878865,-0.5205,0.8654,0.1592,-0.2439,-0.1220,0.4878
1595878865,-0.5209,0.8641,0.1606,-0.3049,-0.0610,0.1829
1595878865,-0.5215,0.8665,0.1613,-0.3049,-0.0610,-0.1220
1595878865,-0.5208,0.8655,0.1605,-0.3659,0.0000,-0.1220
1595878865,-0.5185,0.8661,0.1598,-0.1829,-0.0610,0.4268
1595878865,-0.5205,0.8676,0.1596,-0.1220,-0.1829,0.9146
1595878865,-0.5202,0.8697,0.1614,-0.1829,-0.1829,1.0366
1595878865,-0.5214,0.8679,0.1588,-0.2439,-0.0610,0.4268
1595878865,-0.5218,0.8659,0.1548,-0.3049,0.0610,-0.6707
1595878865,-0.5248,0.8631,0.1547,-0.3659,0.2439,-1.9512
1595878865,-0.5270,0.8618,0.1601,-0.4268,0.1829,-2.4390
1595878865,-0.5248,0.8603,0.1622,-0.4268,0.1220,-1.9512
1595878865,-0.5220,0.8610,0.1636,-0.3659,-0.0610,-0.7927
1595878865,-0.5204,0.8636,0.1643,-0.1220,-0.0610,0.8537
1595878865,-0.5172,0.8683,0.1609,-0.1220,-0.3049,2.4390
1595878865,-0.5157,0.8715,0.1608,-0.0610,-0.3659,3.2317
1595878865,-0.5184,0.8748,0.1591,0.0000,-0.3049,2.6829
1595878865,-0.5206,0.8709,0.1566,-0.1220,-0.1829,0.9146
1595878865,-0.5208,0.8683,0.1565,-0.3659,0.1220,-1.3415
1595878865,-0.5245,0.8637,0.1614,-0.5488,0.3049,-3.2317
1595878865,-0.5283,0.8602,0.1602,-0.6098,0.4268,-3.7805
1595878865,-0.5256,0.8593,0.1613,-0.5488,0.3049,-2.7439
1595878865,-0.5234,0.8606,0.1618,-0.4268,0.0610,-0.6098
1595878865,-0.5199,0.8653,0.1602,-0.1220,-0.1829,1.7073
1595878865,-0.5203,0.8695,0.1585,0.0000,-0.4268,3.1707
1595878865,-0.5197,0.8721,0.1580,0.0610,-0.4268,3.2927
1595878865,-0.5171,0.8691,0.1597,0.0000,-0.2439,1.9512
1595878865,-0.5204,0.8677,0.1595,-0.2439,-0.0610,-0.1220
1595878865,-0.5226,0.8656,0.1614,-0.4878,0.2439,-2.0732
1595878865,-0.5247,0.8641,0.1616,-0.5488,0.3049,-2.9878
1595878865,-0.5261,0.8594,0.1617,-0.4268,0.3049,-2.6220
1595878865,-0.5256,0.8627,0.1589,-0.3049,0.1220,-1.2195
1595878865,-0.5209,0.8652,0.1572,-0.0610,-0.1829,0.6707
1595878865,-0.5206,0.8671,0.1580,0.0610,-0.1829,2.0122
1595878865,-0.5190,0.8694,0.1584,-0.0610,-0.2439,2.1951
1595878865,-0.5187,0.8697,0.1569,-0.0610,-0.1829,1.5244
1595878865,-0.5186,0.8677,0.1606,-0.3049,-0.0610,0.3659
1595878865,-0.5215,0.8654,0.1613,-0.3659,0.1220,-0.9146
1595878865,-0.5227,0.8645,0.1625,-0.3659,0.1220,-1.5854
1595878865,-0.5216,0.8623,0.1591,-0.3659,0.1829,-1.5854
1595878865,-0.5233,0.8646,0.1563,-0.3659,0.1220,-1.0366
1595878865,-0.5227,0.8663,0.1569,-0.3049,0.0000,-0.3659
1595878865,-0.5219,0.8649,0.1589,-0.2439,0.0000,0.2439
1595878865,-0.5206,0.8651,0.1630,-0.1829,-0.0610,0.4878
1595878865,-0.5199,0.8652,0.1606,-0.2439,-0.1220,0.3659
1595878865,-0.5214,0.8669,0.1596,-0.2439,-0.0610,0.3049
1595878865,-0.5211,0.8683,0.1592,-0.2439,0.0000,0.3659
1595878865,-0.5181,0.8679,0.1581,-0.1829,0.0000,0.5488
1595878865,-0.5186,0.8685,0.1578,-0.2439,-0.1829,0.6098
1595878865,-0.5198,0.8684,0.1599,-0.3049,-0.0610,0.3659
1595878865,-0.5220,0.8676,0.1592,-0.2439,0.0610,-0.3049
1595878865,-0.5239,0.8658,0.1584,-0.3659,0.1829,-1.2195
1595878865,-0.5233,0.8657,0.1585,-0.4878,0.1829,-1.8293
1595878865,-0.5230,0.8641,0.1590,-0.3049,0.1220,-1.7683
1595878865,-0.5239,0.8628,0.1622,-0.3659,0.0610,-0.9756
1595878865,-0.5216,0.8622,0.1615,-0.2439,0.0000,0.1829
1595878865,-0.5212,0.8654,0.1593,-0.1220,-0.1829,1.4024
1595878865,-0.5209,0.8675,0.1574,-0.1220,-0.2439,2.1951
1595878865,-0.5187,0.8694,0.1603,-0.0610,-0.2439,2.1951
1595878865,-0.5161,0.8685,0.1612,-0.1829,-0.1829,1.2805
1595878865,-0.5178,0.8702,0.1611,-0.3049,0.0000,-0.1829
1595878865,-0.5226,0.8657,0.1610,-0.3049,0.1220,-1.7073
1595878865,-0.5241,0.8609,0.1594,-0.5488,0.2439,-2.6829
1595878865,-0.5241,0.8613,0.1580,-0.5488,0.3659,-2.9878
1595878865,-0.5262,0.8632,0.1599,-0.4268,0.2439,-1.9512
1595878865,-0.5221,0.8615,0.1600,-0.3659,0.0000,-0.1829
1595878865,-0.5201,0.8641,0.1599,-0.1829,-0.1829,1.7683
1595878865,-0.5175,0.8701,0.1589,0.0000,-0.3659,3.0488
1595878865,-0.5167,0.8727,0.1616,0.0610,-0.3049,2.9878
1595878865,-0.5173,0.8703,0.1587,-0.0610,-0.2439,1.7683
1595878865,-0.5208,0.8701,0.1587,-0.3659,0.0000,-0.3049
1595878865,-0.5234,0.8673,0.1613,-0.4268,0.2439,-2.1951
1595878865,-0.5239,0.8607,0.1607,-0.5488,0.3659,-3.1098
1595878865,-0.5244,0.8610,0.1610,-0.5488,0.2439,-2.6829
1595878865,-0.5243,0.8646,0.1581,-0.4268,0.0000,-1.2195
1595878865,-0.5224,0.8665,0.1564,-0.2439,-0.1220,0.4878
1595878865,-0.5214,0.8652,0.1608,-0.1220,-0.1829,1.5244
1595878865,-0.5218,0.8691,0.1614,-0.0610,-0.2439,1.7073
1595878865,-0.5204,0.8682,0.1620,-0.1829,-0.1829,1.2805
1595878865,-0.5215,0.8678,0.1630,-0.1829,-0.1220,0.4268
1595878865,-0.5212,0.8664,0.1615,-0.3049,0.0610,-0.2439
1595878865,-0.5206,0.8680,0.1596,-0.3659,0.0610,-0.4878
1595878865,-0.5205,0.8648,0.1599,-0.3049,0.0610,-0.3659
1595878865,-0.5220,0.8652,0.1589,-0.3049,0.0000,-0.2439
1595878865,-0.5220,0.8689,0.1573,-0.2439,0.0000,-0.2439
1595878865,-0.5240,0.8669,0.1589,-0.3049,0.0610,-0.6098
1595878866,-0.5217,0.8663,0.1600,-0.3049,0.1220,-0.8537
1595878866,-0.5214,0.8646,0.1621,-0.3659,0.1220,-0.7927
1595878866,-0.5220,0.8651,0.1603,-0.2439,-0.1220,-0.2439
1595878866,-0.5222,0.8652,0.1595,-0.2439,-0.0610,0.4268
1595878866,-0.5198,0.8665,0.1610,-0.2439,-0.1829,0.8537
1595878866,-0.5176,0.8675,0.1608,-0.1829,-0.1829,0.9756
1595878866,-0.5187,0.8670,0.1610,-0.1829,-0.1220,0.5488
1595878866,-0.5189,0.8660,0.1580,-0.1829,0.0000,-0.2439
1595878866,-0.5223,0.8654,0.1585,-0.3049,0.1829,-0.8537
1595878866,-0.5220,0.8644,0.1587,-0.3659,0.1220,-0.9756
1595878866,-0.5225,0.8651,0.1582,-0.3659,0.1220,-0.8537
1595878866,-0.5225,0.8635,0.1581,-0.3049,0.0610,-0.4878
1595878866,-0.5227,0.8633,0.1620,-0.3049,0.0610,-0.2439
1595878866,-0.5213,0.8665,0.1609,-0.1829,-0.0610,0.1220
1595878866,-0.5200,0.8677,0.1595,-0.1829,-0.0610,0.5488
1595878866,-0.5200,0.8671,0.1602,-0.1829,-0.0610,0.7317
1595878866,-0.5213,0.8676,0.1620,-0.2439,-0.1220,0.7317
1595878866,-0.5223,0.8653,0.1620,-0.2439,-0.1220,0.4268
1595878866,-0.5192,0.8658,0.1620,-0.1829,-0.0610,-0.1829
1595878866,-0.5214,0.8693,0.1632,-0.3049,0.0000,-0.6707
1595878866,-0.5210,0.8664,0.1573,-0.3659,0.1220,-0.6707
1595878866,-0.5217,0.8656,0.1583,-0.3049,0.0610,-0.4878
1595878866,-0.5214,0.8655,0.1585,-0.3049,-0.0610,-0.1829
1595878866,-0.5226,0.8660,0.1599,-0.3049,-0.0610,0.0000
1595878866,-0.5219,0.8656,0.1596,-0.1829,0.0000,0.0610
1595878866,-0.5234,0.8657,0.1599,-0.1829,-0.0610,-0.3659
1595878866,-0.5225,0.8636,0.1592,-0.3049,0.0000,-0.6098
1595878866,-0.5240,0.8652,0.1595,-0.3659,0.0000,-0.3049
1595878866,-0.5224,0.8645,0.1622,-0.2439,0.0000,0.2439
1595878866,-0.5180,0.8652,0.1641,-0.1829,-0.1829,0.8537
1595878866,-0.5208,0.8655,0.1607,-0.1829,-0.1220,1.0976
1595878866,-0.5197,0.8684,0.1593,0.0000,-0.1829,0.9146
1595878866,-0.5195,0.8701,0.1586,-0.2439,-0.0610,0.1220
1595878866,-0.5187,0.8682,0.1577,-0.3659,0.0000,-0.6707
1595878866,-0.5218,0.8658,0.1597,-0.4878,0.0610,-1.2805
1595878866,-0.5249,0.8630,0.1616,-0.4268,0.1829,-1.5854
1595878866,-0.5253,0.8602,0.1598,-0.3659,0.1829,-1.4634
1595878866,-0.5219,0.8622,0.1584,-0.3659,0.0610,-0.6707
1595878866,-0.5202,0.8643,0.1578,-0.3049,-0.0610,0.3659
1595878866,-0.5202,0.8673,0.1612,-0.1829,-0.1220,1.3415
1595878866,-0.5191,0.8662,0.1636,-0.1829,-0.2439,1.7073
1595878866,-0.5201,0.8698,0.1594,-0.1829,-0.1829,1.4024
1595878866,-0.5198,0.8690,0.1611,-0.3049,-0.1220,0.4268
1595878866,-0.5214,0.8656,0.1602,-0.3659,0.0000,-0.5488
1595878866,-0.5229,0.8650,0.1616,-0.3659,0.0610,-1.2195
1595878866,-0.5220,0.8633,0.1585,-0.3049,0.1829,-1.2805
1595878866,-0.5234,0.8632,0.1587,-0.3659,0.0610,-0.9756
1595878866,-0.5223,0.8644,0.1614,-0.3049,0.0610,-0.4268
1595878866,-0.5231,0.8655,0.1605,-0.3049,-0.0610,0.0610
1595878866,-0.5213,0.8654,0.1602,-0.1220,-0.0610,0.4268
1595878866,-0.5232,0.8663,0.1610,-0.1220,-0.0610,0.4878
1595878866,-0.5187,0.8669,0.1606,-0.2439,-0.0610,0.3049
1595878866,-0.5208,0.8663,0.1601,-0.1829,-0.0610,0.3049
1595878866,-0.5190,0.8665,0.1594,-0.2439,-0.0610,0.0610
1595878866,-0.5186,0.8672,0.1596,-0.2439,0.0000,0.0000
1595878866,-0.5225,0.8676,0.1610,-0.2439,-0.0610,0.0000
1595878866,-0.5233,0.8666,0.1605,-0.1829,0.0000,-0.1829
1595878866,-0.5219,0.8648,0.1592,-0.3049,0.0610,-0.5488
1595878866,-0.5234,0.8636,0.1591,-0.3049,0.0610,-0.8537
1595878866,-0.5224,0.8645,0.1602,-0.3049,0.1220,-0.7927
1595878866,-0.5204,0.8625,0.1608,-0.3049,0.0000,-0.4268
1595878866,-0.5212,0.8647,0.1615,-0.2439,-0.1220,0.0610
1595878866,-0.5208,0.8663,0.1600,-0.3049,-0.1220,0.6707
1595878866,-0.5218,0.8666,0.1615,-0.2439,-0.1829,1.0366
1595878866,-0.5190,0.8678,0.1606,-0.2439,-0.1829,0.9756
1595878866,-0.5192,0.8687,0.1609,-0.1829,-0.1220,0.4878
1595878866,-0.5212,0.8678,0.1615,-0.3049,-0.0610,-0.2439
1595878866,-0.5239,0.8657,0.1592,-0.3659,0.0610,-1.0976
1595878866,-0.5250,0.8619,0.1582,-0.4878,0.1829,-1.7073
1595878866,-0.5216,0.8639,0.1578,-0.4878,0.1220,-1.6463
1595878866,-0.5222,0.8635,0.1608,-0.3049,0.1220,-0.7927
1595878866,-0.5224,0.8639,0.1611,-0.2439,0.0000,0.3049
1595878866,-0.5194,0.8667,0.1617,-0.1829,-0.1220,1.2195
1595878866,-0.5199,0.8677,0.1602,-0.1220,-0.1220,1.7073
1595878866,-0.5195,0.8698,0.1589,-0.1829,-0.0610,1.4634
1595878866,-0.5193,0.8685,0.1583,-0.2439,-0.0610,0.5488
1595878866,-0.5216,0.8680,0.1597,-0.2439,0.1220,-0.4268
1595878866,-0.5204,0.8673,0.1595,-0.3659,0.1220,-1.3415
1595878866,-0.5221,0.8639,0.1591,-0.3659,0.2439,-1.8902
1595878866,-0.5249,0.8626,0.1606,-0.4878,0.1829,-1.7683
1595878866,-0.5249,0.8627,0.1605,-0.2439,0.1220,-0.9756
1595878866,-0.5242,0.8641,0.1586,-0.1220,0.0000,0.0000
1595878866,-0.5234,0.8653,0.1611,-0.1829,-0.0610,0.9756
1595878866,-0.5195,0.8655,0.1603,-0.1220,-0.1220,1.6463
1595878866,-0.5183,0.8687,0.1592,-0.1220,-0.1829,1.5244
1595878866,-0.5186,0.8680,0.1569,-0.1829,-0.1220,0.7317
1595878866,-0.5209,0.8701,0.1569,-0.3049,0.0000,-0.1829
1595878866,-0.5229,0.8656,0.1611,-0.3049,0.0610,-0.9146
1595878866,-0.5231,0.8629,0.1628,-0.4268,0.1829,-1.3415
1595878866,-0.5207,0.8622,0.1602,-0.4878,0.1829,-1.3415
1595878866,-0.5221,0.8632,0.1613,-0.3659,0.1220,-0.9756
1595878866,-0.5235,0.8649,0.1609,-0.3049,0.0610,-0.3659
1595878866,-0.5223,0.8651,0.1583,-0.3049,-0.0610,0.3049
1595878866,-0.5203,0.8662,0.1591,-0.2439,-0.1829,0.7927
1595878866,-0.5201,0.8669,0.1605,-0.1829,-0.1220,0.9146
1595878866,-0.5207,0.8683,0.1608,-0.1829,-0.1829,0.7317
1595878866,-0.5187,0.8676,0.1596,-0.1829,-0.0610,0.3049
1595878866,-0.5197,0.8675,0.1592,-0.1829,0.0000,-0.1220
1595878866,-0.5214,0.8651,0.1608,-0.3049,0.0610,-0.5488
1595878866,-0.5202,0.8645,0.1609,-0.3659,0.0610,-0.7927
1595878866,-0.5232,0.8650,0.1606,-0.4268,0.0610,-0.7317
1595878867,-0.5240,0.8655,0.1599,-0.3659,0.0610,-0.6707
1595878867,-0.5211,0.8653,0.1599,-0.3049,0.0000,-0.3049
1595878867,-0.5217,0.8663,0.1586,-0.2439,-0.0610,0.0610
1595878867,-0.5216,0.8677,0.1610,-0.1829,-0.0610,0.4878
1595878867,-0.5216,0.8691,0.1625,-0.1220,-0.0610,0.7927
1595878867,-0.5199,0.8688,0.1617,-0.1220,-0.1220,0.8537
1595878867,-0.5197,0.8681,0.1600,-0.1829,-0.0610,0.4878
1595878867,-0.5201,0.8677,0.1570,-0.3049,0.0000,-0.0610
1595878867,-0.5218,0.8670,0.1581,-0.3049,0.0000,-0.7317
1595878867,-0.5243,0.8644,0.1609,-0.3049,0.0610,-1.1585
1595878867,-0.5229,0.8664,0.1600,-0.3049,0.1829,-1.2805
1595878867,-0.5237,0.8640,0.1580,-0.4268,0.0610,-0.9756
1595878867,-0.5240,0.8643,0.1606,-0.3659,-0.0610,-0.1829
1595878867,-0.5211,0.8658,0.1611,-0.2439,-0.1220,0.6098
1595878867,-0.5191,0.8670,0.1608,-0.1829,-0.1220,1.1585
1595878867,-0.5191,0.8690,0.1581,-0.0610,-0.1220,1.1585
1595878867,-0.5189,0.8682,0.1584,-0.1220,-0.1220,0.6707
1595878867,-0.5200,0.8669,0.1602,-0.1829,-0.0610,0.0000
1595878867,-0.5222,0.8657,0.1602,-0.3049,0.1220,-0.7317
1595878867,-0.5237,0.8640,0.1614,-0.4268,0.1220,-1.2195
1595878867,-0.5230,0.8631,0.1591,-0.3659,0.1220,-1.2805
1595878867,-0.5236,0.8637,0.1606,-0.3049,0.0610,-0.8537
1595878867,-0.5319,0.8501,0.1594,-0.2439,0.0000,-0.1829
1595878867,-0.6469,0.5826,0.1975,-0.1829,-0.1829,0.5488
1595878867,-0.5612,0.8130,0.1075,-0.4878,-0.1829,20.1220
1595878867,-0.4667,0.7479,0.1780,-4.2683,4.4512,160.6707
1595878867,-0.4075,0.7123,0.2052,-24.8171,13.1098,308.2317
1595878867,-0.3236,0.9292,0.1514,-23.4756,21.2805,389.8171
1595878867,-0.2304,1.0511,0.1437,-18.1098,29.7561,485.6707
1595878867,-0.0944,0.5953,0.1692,-19.8780,36.7073,571.4025
1595878867,0.5870,0.9620,0.1964,-8.9634,46.2195,552.0732
1595878867,1.6440,1.3297,0.3964,11.7073,48.5366,564.3293
1595878867,1.0275,1.5712,0.1006,45.4878,139.3902,150.6707
1595878867,-1.2224,1.5682,0.2241,-23.3537,249.8171,-265.4268
1595878867,0.5535,1.9999,0.5433,-75.0610,296.7683,-477.6219
1595878867,-0.1999,0.4323,-0.1487,-123.1707,296.5854,-771.4025
1595878867,-0.7432,-0.2188,-0.1964,-243.1098,298.4146,-888.4756
1595878867,-0.4680,0.4061,0.1766,-212.6220,188.9634,-792.3781
1595878867,-0.5387,1.0738,0.3566,-108.7805,134.8781,-797.3781
1595878867,-0.1446,1.4874,0.4359,-55.7927,141.2805,-978.7195
1595878867,0.7141,1.6349,0.3180,-77.1951,147.6219,-956.8903
1595878867,0.5657,1.7019,-0.3750,-188.7195,208.9634,-826.4025
1595878867,-0.0800,0.6023,-0.8678,-336.2195,289.4512,-904.1464
1595878867,-1.1941,-1.2255,-0.6329,-454.4512,327.7439,-1143.7195
1595878867,-1.9963,-1.8156,-0.0990,-524.3293,270.9756,-1189.2683
1595878867,-1.3215,-1.4445,0.1613,-514.6342,149.7561,-827.7439
1595878867,-0.4756,-1.9315,0.1722,-470.7927,56.2195,-472.6219
1595878867,-1.0609,-1.9999,0.3325,-388.5366,42.1341,-444.1464
1595878867,-1.7656,-1.8111,0.6066,-292.9878,56.9512,-318.1707
1595878867,-1.9999,-1.3919,0.4951,-188.8415,66.5854,-146.7683
1595878867,-1.9303,-0.6721,-0.0181,-68.4756,53.9024,-185.9146
1595878867,-1.5843,-0.2790,-0.4218,46.3415,-6.0976,-242.8659
1595878867,-0.7435,-1.1420,0.0027,132.4390,-66.7073,-366.1585
1595878867,0.1145,-1.2884,0.4631,186.4634,-73.1707,-578.4147
1595878867,0.0250,0.4863,0.7766,227.3171,-42.9268,-454.6951
1595878867,0.1729,0.3657,0.8548,213.7195,-2.7439,-206.6463
1595878867,0.1947,-0.2709,0.7073,91.3415,54.4512,-229.9390
1595878867,-0.0257,-0.7468,0.5342,-26.8293,111.1585,-271.3415
1595878867,-0.0030,-0.8768,0.3617,-102.5000,139.0854,-269.0244
1595878867,0.1174,-0.8555,0.1195,-138.3537,151.4024,-267.1951
1595878867,0.1803,-0.7902,0.0563,-151.2195,165.5488,-276.4024
1595878867,0.1343,-0.8856,0.0869,-146.4634,172.4390,-246.8293
1595878867,0.0098,-1.0629,0.1226,-125.1829,169.9390,-185.6707
1595878867,-0.1150,-1.1555,0.1569,-84.2683,156.7073,-127.7439
1595878867,-0.0126,-1.1343,0.0958,-25.6707,138.1098,-93.5366
1595878867,0.0394,-0.9714,0.1091,43.9634,121.0976,-79.2073
1595878867,-0.0493,-0.9214,0.1454,109.5732,114.1463,-53.6585
1595878867,-0.0800,-0.8409,0.1824,145.1829,112.4390,-17.0732
1595878867,-0.0743,-0.7789,0.1594,174.7561,106.4634,13.6585
1595878867,-0.0538,-0.7297,0.1251,192.1342,99.7561,42.8049
1595878867,-0.0432,-0.6517,0.1254,194.3293,97.6829,69.0854
1595878867,-0.0710,-0.6675,0.1247,185.9146,100.9146,98.3537
1595878867,-0.0455,-0.8455,0.1000,162.6219,107.3171,138.9634
1595878867,-0.0140,-0.8752,0.0858,138.6585,117.4390,156.2805
1595878867,0.0011,-0.9207,0.0927,127.8049,129.3293,157.3171
1595878867,-0.0117,-0.9392,0.1353,124.4512,139.1463,165.0000
1595878867,-0.0273,-0.9781,0.1696,127.8659,148.5366,175.7927
1595878867,-0.0132,-1.0543,0.1886,134.6342,156.5854,183.5366
1595878867,-0.0396,-1.0960,0.2053,147.5610,163.5976,186.8293
1595878867,-0.1369,-1.1626,0.2195,166.2805,170.6098,185.8537
1595878867,-0.2285,-1.1789,0.2615,186.7073,173.9025,178.9634
1595878867,-0.1716,-1.2050,0.1336,210.5488,163.3537,174.2683
1595878867,-0.1060,-1.1315,0.2263,227.8049,153.0488,157.6219
1595878867,-0.0936,-1.0844,0.2221,245.3049,150.9756,116.8902
1595878867,-0.1065,-1.0332,0.2369,253.4146,148.9024,99.1463
1595878867,-0.1025,-1.0073,0.2609,256.3415,146.4024,89.6341
1595878867,-0.0949,-0.9947,0.2703,254.8171,142.8049,84.2683
1595878867,-0.1119,-0.9643,0.2887,250.8537,140.8537,78.0488
1595878867,-0.0998,-0.9518,0.3101,245.3049,141.7683,64.1463
1595878867,-0.0357,-0.8914,0.3242,237.9878,144.3902,51.0366
1595878867,0.0270,-0.8486,0.3467,231.0366,148.9634,43.4146
1595878867,0.1536,-0.8876,0.1673,223.9634,158.9634,29.6951
1595878867,0.1933,-0.8000,0.1147,220.2439,168.9025,44.1463
1595878867,-0.0350,-0.7665,0.2314,223.4146,176.1585,129.8781
1595878867,-0.2952,-0.7043,0.4705,226.7683,181.5244,194.3293
1595878867,-0.4842,-0.5807,0.7059,223.2317,175.3659,235.9756
1595878867,-0.5947,-0.6478,0.7019,206.5854,165.7927,220.5488
1595878867,-0.5468,-0.6388,0.4924,178.7805,156.7073,154.2683
1595878867,-0.5042,-0.6907,0.2748,154.3293,142.7439,107.8049
1595878867,-0.5679,-0.7639,0.2434,137.9268,123.4146,116.0366
1595878867,-0.6855,-0.7659,0.2904,133.4756,103.0488,154.7561
1595878867,-0.8012,-0.8116,0.3326,136.0976,83.9634,185.0000
1595878868,-0.7932,-0.8472,0.3734,139.7561,66.5244,180.0000
1595878868,-0.7383,-0.8417,0.3586,142.5610,49.9390,165.3049
1595878868,-0.7063,-0.8250,0.3209,143.8415,38.1707,148.4146
1595878868,-0.7534,-0.8035,0.3423,144.1463,31.8902,134.8781
1595878868,-0.8248,-0.8110,0.3810,145.3659,30.1220,118.7195
1595878868,-0.8477,-0.8044,0.3786,146.8293,31.0976,86.1585
1595878868,-0.8851,-0.7810,0.3527,148.2927,33.9634,41.7073
1595878868,-0.9171,-0.7573,0.3119,150.8537,37.8049,-2.4390
1595878868,-0.8721,-0.7519,0.2268,152.2561,40.1220,-46.6463
1595878868,-0.8371,-0.6890,0.1605,152.2561,39.2073,-82.0732
1595878868,-0.8618,-0.6356,0.1613,152.9268,33.6585,-86.2195
1595878868,-0.8424,-0.6319,0.1642,152.0732,27.4390,-74.3293
1595878868,-0.8177,-0.6271,0.1408,149.0854,24.3293,-68.1707
1595878868,-0.8126,-0.6265,0.1170,145.7927,24.6341,-65.3049
1595878868,-0.8029,-0.6311,0.1135,143.2927,25.9756,-61.8293
1595878868,-0.7994,-0.6279,0.0958,141.2805,27.8049,-61.2195
1595878868,-0.8104,-0.6070,0.0653,139.3293,30.3659,-63.1098
1595878868,-0.8784,-0.5902,0.0596,136.6463,32.3780,-63.7195
1595878868,-0.8945,-0.5685,0.0475,133.2317,32.9268,-63.1098
1595878868,-0.8716,-0.5405,0.0065,129.2683,32.2561,-65.4268
1595878868,-0.8909,-0.4907,-0.0007,124.8171,31.6463,-65.4268
1595878868,-0.8693,-0.5091,0.0191,119.8781,32.0732,-60.4878
1595878868,-0.7722,-0.5626,0.0820,113.6585,35.0610,-62.0732
1595878868,-0.7548,-0.5751,0.1594,109.1463,41.2805,-56.5854
1595878868,-0.8653,-0.5775,0.1960,106.8293,48.6585,-29.1463
1595878868,-1.0040,-0.5875,0.1987,105.4878,54.5732,-7.3171
1595878868,-1.1160,-0.5974,0.1960,105.6707,56.3415,-7.3171
1595878868,-1.1793,-0.5797,0.2066,107.9268,51.4634,-15.4268
1595878868,-1.1431,-0.5961,0.1871,111.7683,41.8293,-30.7317
1595878868,-1.0402,-0.6056,0.1273,114.1463,30.9756,-53.2317
1595878868,-0.9910,-0.5789,0.0981,115.3659,21.0366,-55.6707
1595878868,-1.0163,-0.5701,0.1082,115.4878,14.1463,-33.6585
1595878868,-1.0306,-0.5828,0.1156,113.9024,12.0732,-14.9390
1595878868,-1.0005,-0.5864,0.1115,112.1951,13.7195,-10.7317
1595878868,-0.9387,-0.6144,0.0954,111.9512,18.5366,-17.4390
1595878868,-0.8723,-0.6552,0.0744,112.8659,26.8902,-31.6463
1595878868,-0.8515,-0.6559,0.0579,115.3659,38.5366,-45.2439
1595878868,-0.8923,-0.6044,0.0764,119.2683,51.7683,-54.2683
1595878868,-0.8787,-0.5557,0.0931,123.1098,64.3293,-65.7927
1595878868,-0.8443,-0.4985,0.0657,125.2439,74.5732,-85.3659
1595878868,-0.8666,-0.4571,0.0740,125.7927,79.9390,-90.2439
1595878868,-0.8517,-0.4351,0.1042,125.1829,81.0976,-90.9756
1595878868,-0.8245,-0.3828,0.1221,122.5610,79.5732,-92.2561
1595878868,-0.8298,-0.3459,0.1449,118.1707,77.0122,-87.5610
1595878868,-0.8149,-0.3157,0.1711,111.8902,74.4512,-81.2805
1595878868,-0.8082,-0.3175,0.1899,104.5732,71.5854,-66.2805
1595878868,-0.8632,-0.3267,0.1985,96.7073,70.8537,-62.9878
1595878868,-0.8688,-0.3052,0.2116,86.4024,66.5854,-54.3293
1595878868,-0.8667,-0.3374,0.2383,77.0732,59.3293,-37.3780
1595878868,-0.8697,-0.4108,0.2542,68.2317,53.9024,-31.2805
1595878868,-0.8799,-0.4568,0.2759,61.8293,50.1829,-26.8902
1595878868,-0.8588,-0.5088,0.2618,59.6341,48.3537,-21.5244
1595878868,-0.8317,-0.5587,0.2252,60.0000,48.9024,-20.3659
1595878868,-0.8377,-0.5739,0.2154,62.5000,51.5854,-16.2805
1595878868,-0.8639,-0.5994,0.2097,66.8902,55.7927,-8.0488
1595878868,-0.8676,-0.6028,0.2065,72.1341,60.3659,-2.1341
1595878868,-0.8621,-0.5715,0.2029,79.4512,64.2683,4.2073
1595878868,-0.8744,-0.5471,0.2168,87.8659,67.6829,13.1707
1595878868,-0.8946,-0.5270,0.2540,95.8537,70.9146,19.9390
1595878868,-0.9029,-0.5112,0.2914,102.8659,74.2073,18.7195
1595878868,-0.8989,-0.5068,0.3158,108.9024,78.1707,10.3049
1595878868,-0.8985,-0.4995,0.3287,113.4146,82.4390,-0.3049
1595878868,-0.9014,-0.4733,0.3231,116.0976,85.7927,-8.2317
1595878868,-0.8881,-0.4545,0.3198,117.0732,88.1098,-16.4634
1595878868,-0.8497,-0.4266,0.2969,115.9756,88.8415,-25.8537
1595878868,-0.8076,-0.3715,0.2964,114.3902,86.8293,-27.8659
1595878868,-0.8010,-0.3310,0.3326,111.5854,83.2927,-20.1220
1595878868,-0.8080,-0.3475,0.3145,107.1951,81.8902,-23.6585
1595878868,-0.8162,-0.3635,0.2126,101.7073,79.2073,-25.3049
1595878868,-0.8128,-0.3810,0.1696,96.7073,73.1098,-8.4146
1595878868,-0.8224,-0.3636,0.1901,93.2927,66.0366,8.5366
1595878868,-0.8293,-0.2994,0.2121,90.6098,57.6220,26.8902
1595878868,-0.8445,-0.2683,0.2045,87.3781,49.1463,35.3659
1595878868,-0.8543,-0.2698,0.1860,82.8049,43.1098,25.7927
1595878868,-0.8486,-0.2646,0.1591,77.1951,38.3537,20.6707
1595878868,-0.8751,-0.2769,0.1478,71.2805,35.5488,23.2927
1595878868,-0.8807,-0.3333,0.1611,64.9390,34.8780,31.8293
1595878868,-0.8165,-0.3447,0.1638,60.6098,34.2683,50.0000
1595878868,-0.7528,-0.3943,0.1044,59.6341,33.1098,76.6463
1595878868,-0.7441,-0.4429,0.0648,60.1220,33.5976,95.7317
1595878868,-0.8079,-0.4224,0.0791,64.2073,36.0366,106.4634
1595878868,-0.8750,-0.3741,0.0896,73.5366,38.9634,113.7195
1595878868,-1.0015,-0.4639,0.0907,86.9512,43.2317,91.7683
1595878868,-1.1516,-0.5416,0.0601,104.1463,45.3659,56.4024
1595878868,-1.2249,-0.4255,0.0018,125.6098,36.2195,60.1829
1595878868,-1.2534,-0.3027,-0.0579,146.0366,17.7439,84.3902
1595878868,-1.3077,-0.2632,-0.0790,158.4756,0.1220,79.6341
1595878868,-1.3103,-0.2055,-0.0417,164.6342,-13.8415,54.4512
1595878868,-1.2891,-0.1158,0.0247,166.7073,-26.3415,39.0244
1595878868,-1.3069,-0.0198,0.1129,163.9634,-35.7927,31.8293
1595878868,-1.3135,0.0291,0.2081,158.0488,-41.0366,24.0854
1595878868,-1.2372,0.0042,0.2700,151.2805,-43.4146,17.1341
1595878868,-1.1381,-0.0969,0.2950,145.7317,-42.6220,13.7195
1595878868,-1.0633,-0.2301,0.2909,143.1098,-36.8902,10.1220
1595878868,-1.0616,-0.3621,0.2500,145.0610,-26.7073,6.5854
1595878868,-1.1006,-0.4253,0.1843,151.8902,-15.5488,5.8537
1595878868,-1.1312,-0.3813,0.0999,162.3171,-8.1098,13.9634
1595878868,-1.1735,-0.3051,0.0334,173.3537,-6.2195,24.0854
1595878868,-1.1868,-0.2449,-0.0228,180.6098,-8.8415,23.1707
1595878869,-1.1497,-0.1392,-0.0687,183.5976,-14.5732,7.8049
1595878869,-1.1099,-0.0771,-0.1281,182.5610,-20.7317,-6.5854
1595878869,-1.0932,-0.0213,-0.1794,175.1219,-22.4390,-15.8537
1595878869,-1.0119,0.1430,-0.1812,165.3049,-20.9146,-10.7927
1595878869,-0.9092,0.3029,-0.1423,155.8537,-18.4756,8.1098
1595878869,-0.8502,0.3802,-0.0901,143.3537,-12.6829,20.4878
1595878869,-0.7698,0.4794,-0.0451,129.0244,-3.1707,12.9878
1595878869,-0.9149,0.3844,0.0063,115.0610,9.5122,-33.0488
1595878869,-1.0142,0.2067,0.0795,102.0122,23.6585,-111.7073
1595878869,-1.0349,0.0564,0.1410,92.6220,27.9878,-126.0976
1595878869,-0.9861,-0.0052,0.1523,89.5122,26.7073,-120.6707
1595878869,-0.9395,-0.0541,0.1540,91.6463,22.9878,-125.3049
1595878869,-0.9734,-0.1234,0.1874,97.0122,21.3415,-155.8537
1595878869,-0.9846,-0.1804,0.2290,105.4268,20.2439,-186.1585
1595878869,-0.9357,-0.1971,0.2504,117.7439,16.9512,-201.7683
1595878869,-0.8661,-0.2059,0.2590,131.8902,13.5366,-210.3659
1595878869,-0.9120,-0.2453,0.3063,145.6098,14.4512,-233.5976
1595878869,-0.8674,-0.3031,0.3274,156.6463,15.9146,-220.2439
1595878869,-0.7710,-0.3422,0.3063,167.2561,17.0732,-174.8171
1595878869,-0.6870,-0.3396,0.2761,177.8659,20.1829,-123.1707
1595878869,-0.6469,-0.3124,0.2535,187.2561,27.0122,-84.2683
1595878869,-0.6380,-0.2719,0.2199,195.0000,38.7805,-72.7439
1595878869,-0.6402,-0.2380,0.1781,199.7561,55.0000,-80.6707
1595878869,-0.6379,-0.1850,0.1384,199.6342,73.5976,-92.7439
1595878869,-0.6486,-0.1343,0.1041,194.6342,93.8415,-107.1341
1595878869,-0.6595,-0.1343,0.0814,184.1463,115.8537,-126.8902
1595878869,-0.5835,-0.0842,0.1069,168.9634,138.7195,-149.2073
1595878869,-0.5621,-0.1225,0.1368,150.2439,161.7683,-177.9268
1595878869,-0.7523,-0.3933,0.1566,131.2195,188.3537,-271.7683
1595878869,-0.8813,-0.6761,0.1912,110.6707,209.9390,-353.4756
1595878869,-1.1234,-0.8358,0.1902,99.2073,215.3049,-344.7561
1595878869,-1.2150,-0.7329,0.1461,103.3537,203.3537,-245.4268
1595878869,-1.0864,-0.5428,0.0754,107.2561,170.3659,-97.7439
1595878869,-1.0333,-0.3494,0.0179,113.9634,135.2439,-8.7805
1595878869,-0.9693,-0.2614,0.0208,117.3171,105.0610,5.1829
1595878869,-0.8945,-0.2377,0.0427,111.8293,78.3537,-8.0488
1595878869,-0.8037,-0.2258,0.0695,103.5366,58.5976,-24.8780
1595878869,-0.7034,-0.2003,0.0692,93.9634,44.7561,-27.9268
1595878869,-0.5963,-0.2205,0.0342,83.6585,37.5000,-20.6098
1595878869,-0.5719,-0.2413,0.0145,74.0244,39.0854,-14.3293
1595878869,-0.5769,-0.3265,-0.0015,67.6220,49.5732,-21.5854
