time,ax,ay,az,gx,gy,gz
1595879211,0.3306,0.9135,0.3128,0.4878,0.7927,-0.0610
1595879211,0.3328,0.9224,0.3156,0.4878,0.4878,-0.1220
1595879211,0.3335,0.9207,0.3116,0.3659,0.1829,-0.1220
1595879211,0.3342,0.9205,0.3115,0.1829,-0.1829,-0.1220
1595879211,0.3352,0.9188,0.3157,0.1829,-0.2439,-0.1829
1595879211,0.3325,0.9175,0.3181,0.2439,-0.2439,-0.3049
1595879211,0.3357,0.9150,0.3206,0.1220,-0.0610,-0.3659
1595879211,0.3350,0.9114,0.3198,0.2439,0.1220,-0.3049
1595879211,0.3303,0.9119,0.3176,0.4878,0.3049,-0.3049
1595879211,0.3282,0.9153,0.3125,0.5488,0.4268,-0.1829
1595879211,0.3303,0.9170,0.3104,0.4268,0.3049,-0.1829
1595879211,0.3344,0.9214,0.3133,0.3659,-0.1829,-0.3049
1595879211,0.3364,0.9230,0.3164,0.1829,-0.6707,-0.5488
1595879211,0.3384,0.9210,0.3190,0.0000,-0.9756,-0.7927
1595879211,0.3419,0.9146,0.3206,0.2439,-0.9756,-0.8537
1595879211,0.3455,0.9135,0.3191,0.4878,-0.5488,-0.9146
1595879211,0.3461,0.9161,0.3166,0.5488,-0.1220,-0.8537
1595879211,0.3423,0.9190,0.3176,0.7927,0.4878,-0.6707
1595879211,0.3376,0.9177,0.3168,0.8537,1.0366,-0.3659
1595879211,0.3303,0.9160,0.3149,0.9146,1.2805,-0.1220
1595879211,0.3269,0.9142,0.3146,0.7317,1.1585,0.0610
1595879211,0.3284,0.9133,0.3146,0.4268,0.6098,0.1829
1595879211,0.3304,0.9145,0.3126,0.1220,-0.1829,0.1829
1595879211,0.3293,0.9143,0.3145,0.1829,-0.4268,0.0000
1595879211,0.3271,0.9162,0.3144,0.1829,-0.5488,-0.3049
1595879211,0.3290,0.9171,0.3134,0.1220,-1.0366,-0.4878
1595879211,0.3343,0.9194,0.3114,-0.1220,-1.7073,-0.5488
1595879211,0.3385,0.9174,0.3127,-0.1829,-2.1951,-0.6098
1595879211,0.3387,0.9128,0.3131,-0.1829,-2.3171,-0.6707
1595879211,0.3408,0.9133,0.3124,-0.1829,-2.3780,-0.6098
1595879211,0.3425,0.9140,0.3166,-0.1829,-2.1341,-0.4878
1595879211,0.3450,0.9153,0.3141,-0.1220,-1.8902,-0.4268
1595879211,0.3429,0.9166,0.3169,-0.1220,-1.7073,-0.2439
1595879211,0.3407,0.9160,0.3177,-0.1220,-1.5244,-0.2439
1595879211,0.3412,0.9167,0.3183,0.0000,-1.4024,-0.2439
1595879211,0.3428,0.9172,0.3196,0.0610,-1.4634,-0.3049
1595879211,0.3442,0.9127,0.3198,0.0000,-1.3415,-0.3659
1595879211,0.3443,0.9109,0.3198,0.0610,-1.0976,-0.4268
1595879211,0.3443,0.9110,0.3232,0.1220,-0.7927,-0.3049
1595879212,0.3434,0.9119,0.3192,0.4878,-0.3049,-0.2439
1595879212,0.3400,0.9145,0.3205,0.5488,0.1220,-0.1220
1595879212,0.3385,0.9139,0.3181,0.6707,0.5488,0.0000
1595879212,0.3358,0.9130,0.3175,0.7317,0.7927,0.0610
1595879212,0.3327,0.9146,0.3172,0.7927,0.7927,0.0000
1595879212,0.3337,0.9172,0.3165,0.8537,0.7927,-0.0610
1595879212,0.3364,0.9163,0.3171,0.9146,0.7317,-0.2439
1595879212,0.3378,0.9149,0.3171,0.9756,0.6707,-0.3659
1595879212,0.3359,0.9160,0.3177,1.0366,0.7927,-0.3659
1595879212,0.3368,0.9171,0.3194,1.0976,0.9756,-0.3659
1595879212,0.3397,0.9169,0.3201,1.1585,0.9146,-0.3049
1595879212,0.3392,0.9194,0.3195,1.0976,0.9146,-0.2439
1595879212,0.3406,0.9197,0.3201,1.1585,0.9756,-0.3049
1595879212,0.3396,0.9184,0.3182,1.0366,0.7317,-0.3049
1595879212,0.3387,0.9163,0.3173,0.8537,0.4878,-0.1829
1595879212,0.3416,0.9155,0.3204,0.7317,0.3659,-0.1829
1595879212,0.3417,0.9167,0.3206,0.6707,0.4268,-0.1829
1595879212,0.3416,0.9147,0.3183,0.7317,0.5488,-0.2439
1595879212,0.3404,0.9152,0.3184,0.6707,0.6707,-0.3659
1595879212,0.3398,0.9150,0.3180,0.6098,0.8537,-0.3659
1595879212,0.3411,0.9164,0.3224,0.6098,0.8537,-0.3049
1595879212,0.3411,0.9147,0.3207,0.7317,0.8537,-0.3659
1595879212,0.3414,0.9140,0.3201,0.7927,0.7927,-0.3049
1595879212,0.3440,0.9138,0.3198,0.6707,0.7317,-0.2439
1595879212,0.3427,0.9143,0.3193,0.6707,0.9146,-0.2439
1595879212,0.3436,0.9153,0.3188,0.6707,1.0976,-0.1220
1595879212,0.3457,0.9144,0.3199,0.5488,1.0976,-0.1220
1595879212,0.3436,0.9147,0.3175,0.5488,1.1585,-0.1829
1595879212,0.3437,0.9148,0.3183,0.6098,1.4024,-0.1220
1595879212,0.3448,0.9131,0.3179,0.7317,1.7073,-0.1829
1595879212,0.3433,0.9120,0.3182,0.8537,2.1341,-0.0610
1595879212,0.3412,0.9126,0.3168,0.9756,2.3780,0.0610
1595879212,0.3375,0.9151,0.3173,1.0366,2.5610,0.0610
1595879212,0.3380,0.9119,0.3182,1.2195,2.6829,-0.0610
1595879212,0.3394,0.9128,0.3173,1.2195,2.8049,0.0000
1595879212,0.3401,0.9118,0.3174,1.1585,2.6829,0.0000
1595879212,0.3410,0.9147,0.3215,1.1585,2.6220,0.0000
1595879212,0.3423,0.9139,0.3242,1.1585,2.7439,-0.0610
1595879212,0.3442,0.9123,0.3284,1.0976,2.9878,-0.1220
1595879212,0.3460,0.9114,0.3283,1.2195,3.4146,-0.1220
1595879212,0.3459,0.9111,0.3281,1.1585,3.7805,0.0610
1595879212,0.3439,0.9101,0.3276,1.1585,4.2073,0.1829
1595879212,0.3461,0.9100,0.3217,0.9756,4.1463,0.3049
1595879212,0.3450,0.9103,0.3203,0.7927,4.2073,0.6098
1595879212,0.3465,0.9114,0.3229,0.6707,4.3293,0.7927
1595879212,0.3485,0.9177,0.3264,0.6098,4.4512,0.8537
1595879212,0.3406,0.9221,0.3241,0.6098,5.0000,0.7927
1595879212,0.3297,0.9205,0.3196,0.5488,5.1220,0.7317
1595879212,0.3311,0.9227,0.3201,0.7317,4.7561,0.3049
1595879212,0.3344,0.9224,0.3123,0.4878,3.8415,0.0000
1595879212,0.3338,0.9213,0.3186,0.1220,3.0488,0.1829
1595879212,0.3309,0.9176,0.3209,0.0610,2.9878,0.0000
1595879212,0.3259,0.9103,0.3215,0.1220,2.5000,-0.1220
1595879212,0.3243,0.9120,0.3230,-0.3049,1.7073,0.3659
1595879212,0.3327,0.9233,0.3272,-0.4268,0.9146,0.6707
1595879212,0.3283,0.9298,0.3394,-1.1585,0.9146,0.7927
1595879212,0.2829,0.9443,0.4035,-1.5854,1.9512,0.7317
1595879212,0.1872,0.9284,0.4545,-3.2317,2.8659,-0.1829
1595879212,0.1219,0.9367,0.4862,-6.5244,0.4878,-2.5000
1595879212,0.1115,0.9727,0.5174,-10.1829,-12.6829,-5.0000
1595879212,0.1369,0.9611,0.5314,-26.5854,-52.4390,-11.9512
1595879212,0.1490,0.9738,0.5883,-32.1951,-64.9390,-14.6341
1595879212,0.1375,0.9612,0.6519,-36.5244,-72.8049,-18.2927
1595879212,0.0601,0.9185,0.8210,-44.7561,-85.2439,-26.7073
1595879212,0.0580,0.9150,0.9178,-45.4268,-89.6951,-31.4634
1595879212,0.0832,0.9001,1.0107,-46.3415,-95.4268,-35.1829
1595879212,0.0546,0.9045,1.2485,-52.3781,-96.3415,-45.4268
1595879212,0.0332,0.9174,1.2538,-57.2561,-92.2561,-48.9024
1595879212,0.0170,0.9612,1.2375,-62.3171,-87.1951,-53.2317
1595879212,0.0335,1.0284,1.2047,-67.2561,-83.7805,-57.7439
1595879212,0.1528,1.1375,1.1812,-85.9756,-91.6463,-64.8171
1595879213,0.1655,1.1501,1.1838,-99.5122,-97.3781,-67.4390
1595879213,0.1780,1.1799,1.1806,-109.3293,-104.2073,-70.3659
1595879213,0.2233,1.2181,1.1628,-118.5976,-117.1951,-72.5000
1595879213,0.3600,1.2750,1.0494,-142.6219,-154.8781,-72.0122
1595879213,0.5123,1.3181,0.8794,-166.0366,-192.7439,-65.4268
1595879213,0.6009,1.3480,0.7855,-174.8781,-213.9634,-58.7805
1595879213,0.7177,1.3203,0.5752,-189.5732,-256.3415,-36.4634
1595879213,0.8151,1.2945,0.4497,-193.8415,-280.1219,-22.8049
1595879213,0.9091,1.2629,0.3293,-199.9390,-299.5122,-5.7927
1595879213,0.9879,1.2384,0.2293,-199.2073,-313.4756,12.5610
1595879213,1.0140,1.1671,0.0958,-187.3781,-324.0854,56.5854
1595879213,0.9869,1.1208,0.0761,-178.2927,-325.2439,80.7317
1595879213,0.8263,0.8493,-0.1752,-67.4390,-304.5732,204.6951
1595879213,0.8440,0.7769,-0.2635,-55.3049,-293.3537,210.1220
1595879213,0.8259,0.7261,-0.3054,-39.0244,-274.8781,210.8537
1595879213,0.7823,0.6799,-0.3094,-19.1463,-250.9146,208.1707
1595879213,0.7552,0.6374,-0.2880,-0.7927,-227.0732,204.5122
1595879213,0.7290,0.6206,-0.2654,14.2073,-204.9390,200.2439
1595879213,0.6774,0.6218,-0.2813,28.1707,-182.9878,194.8171
1595879213,0.6236,0.5362,-0.3457,44.3902,-148.4756,181.5854
1595879213,0.6044,0.4874,-0.3712,51.0976,-134.3902,173.8415
1595879213,0.5870,0.4340,-0.3981,56.8902,-121.5854,164.6951
1595879213,0.5744,0.3925,-0.4122,62.8659,-111.0366,156.2195
1595879213,0.5926,0.3655,-0.4144,68.9634,-102.4390,147.3171
1595879213,0.6105,0.3519,-0.3914,73.9024,-93.4146,137.7439
1595879213,0.6076,0.3308,-0.3853,77.4390,-81.7683,128.2317
1595879213,0.5879,0.2960,-0.4107,80.1220,-69.1463,119.3902
1595879213,0.5797,0.2591,-0.4293,83.1098,-61.5244,111.2805
1595879213,0.6014,0.1708,-0.5111,88.4146,-58.4756,95.6707
1595879213,0.6004,0.1575,-0.5438,91.0976,-58.2317,87.5610
1595879213,0.6844,0.1711,-0.5370,105.4878,-61.2195,63.9024
1595879213,0.6870,0.1572,-0.5310,111.6463,-60.0000,57.2561
1595879213,0.7892,0.1015,-0.6420,135.4268,-61.4634,34.2073
1595879213,0.8277,0.1052,-0.6321,141.9512,-64.6951,30.2439
1595879213,0.8503,0.0835,-0.6636,148.7195,-69.0854,26.7073
1595879213,0.7919,0.0886,-0.6837,154.8171,-73.0488,23.6585
1595879213,0.6487,0.0988,-0.7571,158.2317,-64.9390,18.7805
1595879213,0.8693,0.1461,-0.6265,180.6707,-22.8659,-3.6585
1595879213,0.8177,0.1475,-0.7698,187.3171,-4.1463,-6.8902
1595879213,0.7990,0.1960,-0.8259,192.8049,1.0366,-8.4146
1595879213,0.8428,0.2615,-0.7867,200.1220,0.6098,-11.0366
1595879213,0.9158,0.2827,-0.6870,209.0854,-7.6220,-14.0854
1595879213,0.9118,0.2473,-0.6427,219.8171,-40.2439,-14.0244
1595879213,0.9073,0.2820,-0.7142,223.6585,-54.8171,-13.2317
1595879213,0.9310,0.3055,-0.8382,228.4756,-66.2195,-13.5976
1595879213,0.9476,0.3450,-0.9640,234.3902,-69.5732,-15.0610
1595879213,0.9521,0.4592,-1.1255,260.9146,-45.9146,-23.1707
1595879213,1.1056,0.5081,-0.9359,282.7439,-22.9268,-29.3293
1595879213,1.2623,0.5862,-0.7946,313.2317,0.5488,-36.0976
1595879213,1.2482,0.6458,-0.8295,341.0366,12.6829,-31.4634
1595879213,1.1970,0.7969,-0.8486,363.0488,9.3902,-18.6585
1595879213,1.2730,0.9612,-0.6621,402.2561,-13.9634,7.1341
1595879213,1.4500,0.9116,-0.4274,416.2195,2.9878,9.5732
1595879213,1.6323,0.8405,-0.0298,430.9146,42.3171,9.8171
1595879213,1.6307,0.7162,0.2366,444.4512,88.5976,17.3171
1595879213,0.8834,1.1558,1.1307,443.8415,129.5122,32.8049
1595879213,-1.5180,1.9999,1.9999,407.3781,123.9024,56.7073
1595879213,-1.2639,1.0710,-0.9383,50.6707,-241.7683,7.5000
1595879213,1.8658,-0.9817,-1.9999,-59.6951,-480.7927,-27.7439
1595879213,1.9648,-1.1605,0.6649,-26.8293,-305.4878,246.4634
1595879213,1.2462,-1.9999,1.2119,183.2927,-165.6098,88.9634
1595879213,1.2180,-1.0253,0.2534,-16.9512,-93.6585,49.2683
1595879213,1.0305,1.1250,0.0938,33.2927,-17.4390,100.9146
1595879213,0.8427,1.1612,-0.3168,130.3659,63.6585,66.2195
1595879213,1.0052,0.0821,-0.3829,83.5976,81.4634,-46.0366
1595879213,0.9754,-0.5458,0.0393,36.1585,18.3537,-45.0000
1595879213,0.9224,-1.1037,0.2830,23.9024,23.2927,10.4268
1595879213,0.9083,-0.9374,0.4043,17.3780,42.9268,25.3049
1595879213,0.2120,-0.5298,0.2739,42.0732,67.6220,53.8415
1595879213,-0.0018,-0.5177,0.0453,37.9268,90.3049,52.0122
1595879213,0.6667,-0.5262,0.0535,12.8659,34.8171,18.7195
1595879213,1.3462,-0.5575,0.0067,7.3780,-76.3415,19.8171
1595879213,1.3962,-0.6840,-0.1561,2.4390,-122.1951,27.7439
1595879213,1.1956,-0.6909,-0.2114,-8.4146,-98.6585,22.7439
1595879213,1.1510,-0.5971,-0.1641,-4.5122,-70.6707,23.6585
1595879213,1.1751,-0.5360,-0.1012,2.9878,-50.6707,27.0122
1595879213,1.0884,-0.5148,-0.0299,7.1341,-27.4390,25.6098
1595879213,1.0354,-0.4966,0.0469,8.7805,-7.0122,23.7195
1595879213,1.0379,-0.4857,0.0894,10.4878,3.4146,19.5732
1595879213,0.9964,-0.4746,0.0686,11.2805,7.9268,14.7561
1595879213,0.9394,-0.4443,0.0194,11.2195,9.1463,12.6220
1595879213,0.9218,-0.4183,-0.0038,11.9512,6.0366,12.9268
1595879213,0.9169,-0.4288,-0.0213,12.6220,2.1341,12.9268
1595879213,0.9372,-0.4520,-0.0432,12.5000,-0.0610,12.3780
1595879213,0.9886,-0.4621,-0.0507,12.5000,-1.8293,12.6829
1595879213,0.9966,-0.4553,-0.0674,13.2317,-1.7683,13.2927
1595879213,0.9473,-0.4443,-0.1094,14.0854,2.0122,13.3537
1595879213,0.8984,-0.4369,-0.1174,14.8780,6.1585,13.5366
1595879213,0.8651,-0.4487,-0.1068,15.7317,7.1951,13.9634
1595879213,0.8442,-0.4776,-0.0829,15.6098,6.8293,13.9634
1595879213,0.8271,-0.5054,-0.0724,14.8780,7.4390,13.4146
1595879213,0.8323,-0.5098,-0.0804,14.9390,7.3780,12.5000
1595879213,0.8644,-0.4771,-0.0682,16.0976,3.9634,12.3780
1595879213,0.8932,-0.4260,-0.0458,18.1707,-0.6707,12.9268
1595879214,0.8843,-0.3905,-0.0356,20.1220,-2.1341,12.6220
1595879214,0.8356,-0.3872,-0.0220,20.1220,1.7073,10.9756
1595879214,0.7778,-0.3919,-0.0082,19.4512,6.5854,9.2073
1595879214,0.7504,-0.4077,0.0187,18.5976,8.6585,7.9878
1595879214,0.7504,-0.4287,0.0505,17.2561,7.8049,7.3171
1595879214,0.7571,-0.4219,0.0470,15.9146,6.9512,6.5244
1595879214,0.7661,-0.4082,0.0151,15.7317,6.4634,6.2195
1595879214,0.7632,-0.4017,-0.0179,15.2439,6.2805,6.5854
1595879214,0.7711,-0.3755,-0.0447,15.1220,4.6951,6.8293
1595879214,0.7696,-0.3463,-0.0489,16.2195,2.5610,6.3415
1595879214,0.7502,-0.3245,-0.0448,17.5000,2.1341,4.9390
1595879214,0.7192,-0.3044,-0.0245,18.7195,4.5122,2.5000
1595879214,0.6998,-0.2771,0.0118,20.6098,8.2927,-0.9756
1595879214,0.6904,-0.2582,0.0548,23.4756,12.1341,-4.8780
1595879214,0.6799,-0.2583,0.1030,25.6098,16.2805,-9.0244
1595879214,0.6876,-0.3074,0.1583,26.0366,19.6951,-12.0732
1595879214,0.7399,-0.3698,0.1638,24.3902,19.5732,-14.3902
1595879214,0.8018,-0.3618,0.1052,21.0976,19.7561,-15.1220
1595879214,0.8003,-0.3102,0.0656,20.4268,23.7195,-14.8780
1595879214,0.7714,-0.2809,0.0411,20.9146,27.0732,-14.3902
1595879214,0.7513,-0.2783,-0.0033,20.2439,27.1341,-16.0976
1595879214,0.7232,-0.2480,-0.0136,20.1829,21.7683,-18.1098
1595879214,0.6962,-0.1875,0.0155,22.6829,13.2927,-18.5976
1595879214,0.6873,-0.1268,0.0391,25.0610,9.1463,-20.8537
1595879214,0.6873,-0.0656,0.0485,26.1585,11.7683,-25.4268
1595879214,0.6840,-0.0028,0.1190,28.2927,17.9878,-29.7561
1595879214,0.7183,0.0779,0.1727,30.4878,23.4756,-31.4024
1595879214,0.8216,0.0959,0.0768,30.7927,22.3171,-33.2317
1595879214,0.9307,0.1155,-0.0038,26.2195,16.2195,-34.6951
1595879214,0.9349,0.1458,-0.1286,23.3537,12.5000,-29.6341
1595879214,0.8051,0.1595,-0.1771,22.4390,10.4878,-25.5488
1595879214,0.6853,0.2030,-0.0952,23.2927,-1.2195,-22.0732
1595879214,0.6269,0.2100,0.0184,24.8780,-11.8293,-23.4146
1595879214,0.5862,0.1464,0.0706,21.2805,-8.9024,-34.2683
1595879214,0.5610,0.0689,0.0635,13.5366,7.8049,-47.5000
1595879214,0.5273,0.0179,0.0583,5.2439,32.3780,-56.8293
1595879214,0.5380,-0.0038,0.0341,-0.7927,52.3171,-66.2195
1595879214,0.5558,-0.0010,0.0051,-5.4268,62.0732,-75.1829
1595879214,0.5959,0.0036,-0.0378,-9.6341,57.7439,-82.0122
1595879214,0.6646,0.0159,-0.0627,-15.4878,47.4390,-88.2927
1595879214,0.6581,0.0339,-0.0248,-20.1220,32.0732,-96.2195
1595879214,0.7026,0.0609,0.0103,-25.1829,21.5854,-105.6707
1595879214,0.7589,0.0638,0.0401,-29.4512,23.2317,-119.8781
1595879214,0.7154,0.0557,0.0187,-35.7317,34.6951,-137.7439
1595879214,0.6316,0.0621,0.0068,-41.7683,49.0854,-155.0000
1595879214,0.6843,0.0795,0.0639,-47.1951,52.1951,-168.9025
1595879214,0.7825,0.1121,0.0616,-52.6829,40.3659,-184.9390
1595879214,0.8357,0.1580,0.0371,-58.4146,15.3659,-198.1707
1595879214,0.8894,0.2143,0.0045,-65.0610,-13.9634,-208.8415
1595879214,0.9481,0.2490,-0.0159,-74.2683,-38.9024,-220.8537
1595879214,1.0743,0.2634,-0.0178,-85.9146,-58.7805,-235.5488
1595879214,1.2880,0.3182,-0.0569,-97.8049,-68.5366,-249.5122
1595879214,1.4612,0.4058,-0.0491,-107.4390,-63.9024,-258.7805
1595879214,1.5035,0.4440,-0.0372,-119.3902,-44.2683,-262.9878
1595879214,1.3495,0.3818,-0.1022,-132.7439,-11.5854,-269.3903
1595879214,1.0568,0.2812,-0.0988,-138.7805,4.6951,-280.3049
1595879214,0.9500,0.2440,-0.0917,-140.0610,-10.1220,-288.7195
1595879214,0.9493,0.2148,-0.0789,-138.6585,-37.8659,-295.2439
1595879214,0.9489,0.1685,-0.0395,-133.6585,-74.7561,-304.7561
1595879214,1.0001,0.1658,0.0049,-130.4268,-105.9146,-312.3781
1595879214,1.0585,0.1783,0.0372,-127.5610,-122.6829,-318.0488
1595879214,1.0867,0.1916,0.0563,-125.1829,-126.8293,-324.2683
1595879214,1.0938,0.2198,0.0801,-124.6951,-122.5000,-330.0610
1595879214,1.1284,0.2719,0.0964,-126.2195,-113.4756,-336.4634
1595879214,1.2536,0.3805,0.0098,-129.5732,-100.2439,-342.6829
1595879214,1.4171,0.5896,-0.0688,-132.8049,-82.1951,-346.5854
1595879214,1.4655,0.7909,-0.0730,-137.7439,-53.7195,-345.3659
1595879214,1.3380,0.8882,-0.0615,-143.3537,-13.5366,-344.0854
1595879214,1.1409,0.9330,-0.0426,-141.9512,28.4146,-347.9878
1595879214,0.9728,1.0099,-0.0237,-134.3902,59.8171,-351.8293
1595879214,0.8509,1.1549,0.0060,-124.5732,74.3902,-354.2683
1595879214,0.7887,1.3616,0.0383,-115.1829,75.1220,-357.1342
1595879214,0.7751,1.5979,0.0417,-106.2805,66.7683,-361.2805
1595879214,0.8055,1.8408,0.0562,-98.8415,53.2927,-363.2927
1595879214,0.8774,1.9999,0.1252,-91.7683,37.1951,-361.4634
1595879214,0.9194,1.9999,0.2164,-85.4268,20.6098,-355.6098
1595879214,0.9606,1.9971,0.2626,-77.9268,0.0610,-342.5610
1595879214,1.0253,1.9999,0.2724,-69.2073,-28.8415,-321.2195
1595879214,1.1029,1.9736,0.2675,-58.7195,-65.9756,-293.3537
1595879214,1.1567,1.7583,0.2693,-46.5244,-104.7561,-260.9146
1595879214,1.1237,1.4985,0.3459,-31.1585,-133.1707,-221.2195
1595879214,0.9872,1.2874,0.4267,-16.5244,-140.3049,-176.6463
1595879214,0.7120,1.1584,0.4720,-3.6585,-122.5000,-131.4024
1595879214,0.4142,1.1283,0.5041,10.8537,-94.0244,-86.7073
1595879214,0.2319,1.1243,0.4888,18.4146,-69.6341,-46.8902
1595879214,0.1673,1.0881,0.4539,15.9756,-54.6951,-13.7195
1595879214,0.1374,1.0379,0.4043,11.7683,-51.1585,12.2561
1595879214,0.1127,0.9587,0.3232,8.6585,-51.2195,30.1829
1595879214,0.1501,0.9039,0.2990,6.3415,-49.5122,40.3659
1595879214,0.1915,0.9333,0.2568,3.9024,-51.1585,45.1829
1595879214,0.2003,0.9598,0.2394,-0.1220,-57.4390,45.9146
1595879214,0.2264,0.9413,0.2299,-7.3780,-66.2805,39.2073
1595879214,0.2682,0.9242,0.2131,-14.1463,-76.2805,32.3171
1595879214,0.3004,0.9158,0.1984,-16.5854,-87.5000,27.6220
1595879214,0.3176,0.9159,0.2028,-17.1341,-98.4146,22.9878
1595879214,0.3057,0.9225,0.2167,-17.2561,-106.2805,18.3537
1595879214,0.3033,0.9377,0.2292,-16.0366,-109.6951,14.3293
1595879214,0.2905,0.9498,0.2397,-14.3902,-109.6951,11.1585
1595879214,0.2796,0.9568,0.2488,-12.9878,-106.0366,9.8171
1595879215,0.3020,0.9631,0.2548,-11.5854,-97.6220,9.0854
1595879215,0.3177,0.9740,0.2491,-10.7927,-85.0000,8.9634
1595879215,0.2812,0.9714,0.2346,-10.6707,-69.0244,10.1829
1595879215,0.2536,0.9578,0.2416,-9.4512,-51.5244,10.3659
1595879215,0.2765,0.9490,0.2539,-8.2317,-35.6098,8.8415
1595879215,0.2818,0.9449,0.2563,-9.2073,-22.3780,8.7195
1595879215,0.2532,0.9346,0.2567,-10.1220,-11.0976,9.9390
1595879215,0.2343,0.9239,0.2610,-9.6951,-2.1951,9.5122
1595879215,0.2371,0.9257,0.2708,-9.0854,2.1341,8.5366
1595879215,0.2357,0.9292,0.2732,-9.2073,2.3171,8.6585
1595879215,0.2100,0.9203,0.2742,-9.6951,0.9146,8.9634
1595879215,0.1968,0.9057,0.2719,-10.0610,-1.4634,8.4146
1595879215,0.2084,0.8977,0.2719,-10.6707,-5.3049,7.0122
1595879215,0.2190,0.8946,0.2715,-11.4634,-10.4268,6.1585
1595879215,0.2078,0.8783,0.2655,-12.4390,-14.3902,5.6707
1595879215,0.1978,0.8619,0.2665,-12.9268,-16.7683,4.3293
1595879215,0.1858,0.8602,0.2784,-12.8659,-20.1220,2.5610
1595879215,0.1635,0.8591,0.2856,-12.5610,-26.2805,1.2805
1595879215,0.1525,0.8629,0.2938,-12.5000,-34.5122,-0.5488
1595879215,0.1655,0.8754,0.2937,-12.4390,-45.0000,-2.7439
1595879215,0.1844,0.8939,0.2921,-13.1098,-56.2195,-4.3293
1595879215,0.2062,0.9146,0.2935,-14.4512,-66.8902,-6.2805
1595879215,0.2210,0.8828,0.3001,-17.4390,-78.0488,-10.7317
1595879215,0.2250,0.8275,0.3076,-20.0000,-88.4756,-16.0976
1595879215,0.2515,0.8206,0.3365,-19.8780,-95.3049,-18.2317
1595879215,0.2411,0.8248,0.3436,-18.4756,-99.7561,-21.8902
1595879215,0.2026,0.8381,0.3292,-15.7317,-100.7927,-27.5610
1595879215,0.2041,0.8586,0.3094,-13.1707,-102.3171,-32.1341
1595879215,0.2418,0.8683,0.2901,-12.6220,-107.6220,-35.2439
1595879215,0.2736,0.8495,0.2762,-14.6341,-111.9512,-36.5854
1595879215,0.2892,0.8348,0.2650,-15.4268,-110.2439,-37.5610
1595879215,0.2983,0.8439,0.2581,-14.3293,-102.9878,-39.2073
1595879215,0.3034,0.8662,0.2576,-13.0488,-94.7561,-40.5488
1595879215,0.3159,0.8856,0.2545,-12.2561,-87.8049,-41.4634
1595879215,0.3246,0.8951,0.2578,-12.3171,-81.8293,-42.6220
1595879215,0.3286,0.9080,0.2563,-12.3780,-77.2561,-43.1098
1595879215,0.3345,0.9151,0.2491,-11.7073,-74.4512,-43.1707
1595879215,0.3373,0.9162,0.2493,-10.7317,-72.1341,-42.8659
1595879215,0.3369,0.9114,0.2479,-9.4512,-68.7195,-42.5000
1595879215,0.3264,0.9085,0.2479,-7.8049,-63.3537,-42.2561
1595879215,0.3254,0.9166,0.2541,-5.7317,-57.3171,-41.9512
1595879215,0.3247,0.9272,0.2654,-4.0854,-52.1341,-41.5244
1595879215,0.3176,0.9340,0.2770,-2.6829,-48.4756,-40.6098
1595879215,0.3127,0.9271,0.2852,-1.5854,-46.8293,-39.9390
1595879215,0.3189,0.9088,0.2895,-0.9146,-47.9268,-39.2073
1595879215,0.3376,0.8791,0.2953,1.4024,-53.7805,-35.3659
1595879215,0.4342,1.0698,0.3864,7.3171,-54.3902,-26.5854
1595879215,0.4930,1.0720,0.3736,4.0854,-36.4024,-24.3902
1595879215,0.4636,1.1345,0.3334,1.8293,-16.3415,-21.7073
1595879215,0.4609,1.1952,0.3287,-2.8659,-9.0854,-20.2439
1595879215,0.4515,1.1910,0.3359,-5.4878,-7.3171,-18.1707
1595879215,0.4282,1.1696,0.3350,-7.2561,-5.3049,-14.8780
1595879215,0.3680,1.0860,0.3268,-8.9024,-3.1098,-4.5122
1595879215,0.3460,0.9932,0.2844,-15.3049,-9.8780,25.3049
1595879215,0.3444,1.0334,0.2946,-16.4634,-10.4878,34.3902
1595879215,0.3196,1.0833,0.2786,-20.3049,-9.0854,43.9634
1595879215,0.3128,1.0612,0.2655,-21.0366,-11.2805,47.1951
1595879215,0.3099,1.0280,0.2527,-21.6463,-14.3293,49.9390
1595879215,0.3132,0.9891,0.2407,-22.2561,-18.2927,52.6220
1595879215,0.3256,0.9475,0.2314,-22.8659,-22.0732,55.1829
1595879216,0.3215,0.8739,0.2178,-22.3780,-22.1341,59.5732
1595879216,0.2914,0.8811,0.2210,-19.4512,-17.9878,60.7317
1595879216,0.2974,0.8557,0.1790,-20.5488,-23.1098,56.5244
1595879216,0.3019,0.8362,0.1580,-19.5122,-26.4634,54.3293
1595879216,0.3068,0.8151,0.1423,-18.4756,-29.6341,51.4024
1595879216,0.3764,0.8098,0.1392,-15.7317,-31.3415,34.5732
1595879216,0.3839,0.8113,0.1282,-12.8049,-13.4756,20.0610
1595879216,0.3797,0.8092,0.1310,-11.1585,-9.6341,17.1951
1595879216,0.3870,0.8015,0.1387,-10.0610,-7.1951,13.7805
1595879216,0.4105,0.8809,0.2001,-7.0122,3.8415,3.5976
1595879216,0.3593,0.8916,0.2035,-4.0244,20.6098,-2.7439
1595879216,0.3530,0.8896,0.2039,-2.8049,21.7683,-3.7805
1595879216,0.3557,0.8855,0.2082,-2.3780,21.2805,-5.0000
1595879216,0.3587,0.8821,0.2219,-2.3780,20.7317,-6.6463
1595879216,0.3569,0.8900,0.2391,-2.1341,20.9756,-8.2927
1595879216,0.3344,0.9078,0.2623,-0.7317,22.3780,-12.0732
1595879216,0.3371,0.9538,0.2988,2.3780,15.7317,-17.2561
1595879216,0.3487,0.9724,0.3188,2.1341,12.1951,-20.1829
1595879216,0.3563,0.9852,0.3354,1.7073,10.3659,-23.6585
1595879216,0.3568,1.0026,0.3760,2.1951,11.4024,-30.3659
1595879216,0.3620,1.0091,0.3960,2.2561,12.2561,-33.1707
1595879216,0.3620,0.9978,0.4149,1.1585,12.8659,-35.8537
1595879216,0.3568,0.9722,0.4238,-0.4878,13.2927,-37.5610
1595879216,0.3513,0.9609,0.4220,-2.3171,13.3537,-38.2317
1595879216,0.3069,1.1833,0.4012,-10.2439,14.8780,-47.8659
1595879216,0.2852,1.1655,0.3909,-10.6098,8.4146,-52.8049
1595879216,0.2994,1.1573,0.3944,-10.4268,2.2561,-54.0244
1595879216,0.3589,1.0316,0.4542,-12.6829,-21.7073,-57.1341
1595879216,0.3671,0.9929,0.4696,-11.8902,-23.2317,-53.5976
1595879216,0.3607,0.9587,0.4775,-11.5854,-21.7683,-48.6585
1595879216,0.3472,0.9371,0.4744,-10.9756,-18.2927,-42.1341
1595879216,0.3265,0.9304,0.4587,-10.3659,-13.6585,-34.4512
1595879216,0.3051,0.9311,0.4376,-9.9390,-8.8415,-26.6463
1595879216,0.2891,0.9346,0.4185,-9.3293,-4.5732,-19.0854
1595879216,0.2679,0.9402,0.4043,-9.2073,-0.6098,-11.7683
1595879216,0.2173,0.9259,0.3749,-9.5732,5.2439,1.2195
1595879216,0.1956,0.9102,0.3590,-9.8780,5.1220,6.9512
1595879216,0.1715,0.8696,0.3260,-11.4634,-1.7073,16.5854
1595879216,0.1674,0.8518,0.3155,-12.3780,-8.1098,19.8780
1595879216,0.1750,0.8373,0.3105,-13.2317,-15.2439,22.3171
1595879216,0.1956,0.8244,0.3090,-13.8415,-22.5000,24.0854
1595879216,0.2200,0.8129,0.3080,-14.5732,-28.9634,25.3659
1595879216,0.2669,0.7711,0.3058,-14.5122,-36.9512,29.5122
1595879216,0.2363,0.7418,0.2893,-12.9878,-33.2927,32.1341
1595879216,0.2263,0.7361,0.2853,-11.7073,-30.9146,32.3171
1595879216,0.2350,0.7421,0.2849,-10.7927,-29.5122,31.7073
1595879216,0.2721,0.8153,0.3109,-5.0000,-29.3293,23.5366
1595879216,0.3675,0.8361,0.3076,1.7683,-57.2561,19.5732
1595879216,0.4106,0.8560,0.2874,6.4024,-76.1585,21.7073
1595879216,0.6504,0.8839,0.2318,14.3293,-140.6707,37.2561
1595879216,0.6769,0.8876,0.2232,17.5000,-149.4512,44.9390
1595879216,0.6835,0.8586,0.2198,19.2073,-149.9390,52.1341
1595879216,0.7491,0.7919,0.2489,25.9756,-126.2195,75.7317
1595879216,0.7550,0.7834,0.2496,27.8049,-108.7805,83.7805
1595879216,0.7409,0.8086,0.2458,34.3293,-59.8781,102.8049
1595879216,0.7301,0.8211,0.2521,35.9756,-49.3293,108.0488
1595879216,0.7505,0.8304,0.2525,36.3415,-41.3415,111.5244
1595879216,0.7271,0.8227,0.1782,38.4146,-23.1707,118.4756
1595879216,0.7100,0.8084,0.1492,40.7317,-25.4268,120.0610
1595879216,0.7050,0.7974,0.1262,43.1707,-29.3902,121.8293
1595879216,0.7229,0.7916,0.1187,46.2195,-34.6341,122.8049
1595879216,0.7371,0.7820,0.1187,49.5122,-40.9146,123.0488
1595879217,0.7603,0.7802,0.1237,52.5610,-44.5732,124.3902
1595879217,0.7910,0.7976,0.1310,55.7317,-43.5976,125.3049
1595879217,0.8071,0.8177,0.1365,58.7195,-37.6220,124.1463
1595879217,0.8005,0.8383,0.1331,60.7317,-29.3293,121.5854
1595879217,0.8003,0.8652,0.0998,62.0732,-16.3415,113.7805
1595879217,0.8096,0.8561,0.0667,61.2805,-11.0976,107.8049
1595879217,0.8184,0.8438,0.0413,60.4268,-5.9756,100.9756
1595879217,0.7897,0.8020,0.0165,59.2683,4.1463,85.9756
1595879217,0.7750,0.6294,0.0000,62.6220,3.5976,60.1220
1595879217,0.7893,0.5699,-0.0158,66.0366,1.7683,56.0976
1595879217,0.8098,0.5623,-0.0492,68.3537,6.8902,52.8659
1595879217,0.8165,0.5652,-0.0539,68.9634,11.5854,50.1829
1595879217,0.8287,0.5628,-0.0532,67.8049,18.3537,47.1341
1595879217,0.8336,0.5589,-0.0445,66.2195,27.1951,43.6585
1595879217,0.7825,0.5449,-0.1003,59.8171,55.1829,27.9878
1595879217,0.8163,0.5543,-0.1105,58.0488,55.4878,22.3171
1595879217,0.8308,0.5641,-0.1188,55.5488,54.2683,16.7073
1595879217,0.8135,0.5717,-0.1233,53.0488,54.8781,11.2195
1595879217,0.7870,0.5778,-0.1052,50.9756,56.4024,6.0976
1595879217,0.7474,0.5785,-0.0884,48.5976,57.0122,2.0732
1595879217,0.7089,0.5717,-0.0688,46.4634,56.9512,-1.0366
1595879217,0.7006,0.5657,-0.0526,44.3902,55.6707,-4.3293
1595879217,0.6893,0.5517,-0.0585,42.4390,53.1707,-7.5610
1595879217,0.7032,0.5393,-0.0753,40.7317,50.3659,-10.5488
1595879217,0.7399,0.5465,-0.0523,40.3659,45.3049,-14.3902
1595879217,0.6661,0.5236,-0.0219,35.4878,39.3902,-20.1220
1595879217,0.5964,0.5334,-0.0107,32.8049,41.4024,-23.5366
1595879217,0.5858,0.5675,-0.0163,27.7439,33.6585,-31.8293
1595879217,0.6194,0.5818,-0.0209,25.6098,28.0488,-36.1585
1595879217,0.6415,0.5861,-0.0261,23.0488,25.1829,-40.0610
1595879217,0.6412,0.6042,-0.0266,20.3049,22.9878,-43.5366
1595879217,0.6295,0.6249,-0.0099,17.7439,20.3659,-47.1341
1595879217,0.6309,0.6450,-0.0025,14.3902,18.1707,-51.1585
1595879217,0.6518,0.6664,0.0248,8.2927,16.9512,-60.8537
1595879217,0.6706,0.6846,0.0262,5.5488,19.5122,-65.3049
1595879217,0.6837,0.7229,0.0240,0.4878,35.3049,-75.3659
1595879217,0.6343,0.7820,0.0618,-8.1707,62.8049,-90.3659
1595879217,0.6525,0.8281,0.1008,-9.9390,66.1585,-93.9024
1595879217,0.6545,0.9350,0.2103,-18.5366,77.6220,-100.7317
1595879217,0.6545,0.9602,0.2170,-22.6220,82.0122,-101.2195
1595879217,0.5079,0.9482,0.1401,-36.4634,85.3659,-99.6341
1595879217,0.4803,0.9686,0.1193,-36.4024,75.9756,-97.5000
1595879217,0.4357,0.9948,0.1331,-32.6220,42.7439,-92.0122
1595879217,0.4255,0.9953,0.1639,-30.0610,21.8902,-89.3293
1595879217,0.4367,0.9941,0.1852,-27.3171,1.3415,-86.7683
1595879217,0.4486,0.9912,0.1963,-24.9390,-16.8293,-83.6585
1595879217,0.4429,0.9822,0.2064,-22.1341,-32.5000,-79.8781
1595879217,0.4232,0.9752,0.2236,-19.0854,-47.4390,-75.7317
1595879217,0.3954,0.9623,0.2429,-16.4634,-62.8659,-71.3415
1595879217,0.4213,0.9403,0.2185,-14.9390,-77.6829,-66.5854
1595879217,0.5248,0.9431,0.1933,-12.1341,-89.8781,-62.1951
1595879217,0.6479,0.9211,0.1683,-4.4512,-102.0122,-54.1463
1595879217,0.5814,0.9022,0.1591,-2.7439,-94.6951,-51.8902
1595879217,0.5082,0.8992,0.1613,-1.2195,-86.7073,-49.8171
1595879217,0.4796,0.9197,0.1690,0.0000,-82.6220,-47.7439
1595879217,0.4840,0.9354,0.1910,-3.4756,-78.9024,-41.4024
1595879217,0.4849,0.9283,0.1902,-5.6707,-73.7195,-37.0122
1595879217,0.4849,0.9237,0.1703,-6.7073,-65.1829,-32.2561
1595879217,0.7000,0.9285,0.0632,-4.8780,-48.2927,-25.8537
1595879217,0.8361,0.9577,0.0756,-2.6829,-44.2073,-24.9390
1595879217,0.3968,0.8714,0.1510,-5.7317,-4.5732,-31.6463
1595879217,0.4515,0.8630,0.1608,-5.5488,-5.4268,-30.4268
1595879217,0.5862,0.9401,0.1397,-5.9146,-20.4878,-25.0610
1595879217,0.6978,0.9648,0.1703,-6.7073,-27.3780,-23.9634
1595879217,0.6564,0.9542,0.2174,-8.9634,-26.7683,-22.6220
1595879217,0.5095,0.9278,0.2558,-10.6707,-13.7195,-22.9878
1595879217,0.3721,0.8902,0.2620,-11.2195,1.5854,-25.7927
1595879217,0.2823,0.8865,0.2523,-9.7561,12.2561,-27.1341
1595879217,0.3016,0.9386,0.2460,-6.5244,15.8537,-25.3659
1595879218,0.3461,0.9775,0.2007,-5.4268,11.1585,-24.6951
1595879218,0.3274,0.9683,0.1417,-7.0732,5.9146,-26.2805
1595879218,0.3951,1.0179,0.0918,-6.5854,6.4634,-27.3780
1595879218,0.5956,1.0920,0.0712,-0.6098,2.1341,-25.9146
1595879218,0.6987,1.1143,0.0692,2.0732,-4.2073,-19.6341
1595879218,0.6895,1.1145,0.0850,-0.1829,-0.0610,-10.6707
1595879218,0.5656,1.0781,0.2326,-2.9878,20.9756,9.8780
1595879218,0.5487,1.0374,0.2735,-6.0366,22.1951,16.5244
1595879218,0.5159,1.0186,0.2809,-7.0122,27.7439,23.0488
1595879218,0.4918,1.0129,0.2777,-4.7561,36.1585,29.2683
1595879218,0.4733,0.9820,0.2133,-0.8537,40.1220,37.5000
1595879218,0.5247,0.9745,0.1866,3.4756,31.0366,41.1585
1595879218,0.5016,0.9266,0.2051,4.0244,29.3293,42.3171
1595879218,0.3195,0.8641,0.1766,8.2927,-6.9512,42.2561
1595879218,0.3725,0.8815,0.1740,10.1220,-13.2317,40.0610
1595879218,0.4040,0.9155,0.1806,10.8537,-16.5854,39.2683
1595879218,0.4387,0.9364,0.1907,10.4268,-17.5610,39.8171
1595879218,0.4722,0.9471,0.1951,8.9024,-14.2683,39.9390
1595879218,0.4812,0.9587,0.1920,9.0854,-9.7561,41.4024
1595879218,0.5045,0.9594,0.2001,9.7561,-7.0732,44.3902
1595879218,0.5425,0.9774,0.2070,11.5854,-3.7195,56.4024
1595879218,0.5293,0.9722,0.2194,12.7439,-2.8049,60.1220
1595879218,0.5333,0.9559,0.2251,13.0488,-1.8293,62.9268
1595879218,0.5776,0.9489,0.1923,13.7195,0.3659,69.2683
1595879218,0.6049,0.9496,0.1819,15.6707,0.7927,72.5610
1595879218,0.6351,0.9503,0.1827,17.7439,-0.1829,75.3049
1595879218,0.6397,0.9323,0.1778,18.8415,-1.2805,78.5366
1595879218,0.6162,0.8631,0.1560,21.4024,-1.7073,82.7439
1595879218,0.7408,0.7492,0.1507,25.2439,16.9512,82.1951
1595879218,0.7215,0.7398,0.1578,27.5000,27.1951,82.7439
1595879218,0.6827,0.6183,0.1911,38.0488,31.2805,86.7683
1595879218,0.7001,0.5896,0.1846,41.8902,29.5122,87.6829
1595879218,0.7679,0.5316,0.1428,50.1829,45.2439,85.5488
1595879218,0.7698,0.5145,0.1355,52.5610,55.0610,84.0854
1595879218,0.7518,0.4996,0.1375,56.2195,61.7683,82.6829
1595879218,0.7243,0.4976,0.1490,60.9756,63.7195,81.4024
1595879218,0.7226,0.4770,0.1646,64.6951,61.5244,79.8781
1595879218,0.7559,0.4207,0.1337,69.5122,59.3902,75.9146
1595879218,0.7848,0.4161,0.1134,72.6220,63.1098,73.3537
1595879218,0.8786,0.4742,0.0863,80.8537,78.9024,64.9390
1595879218,0.8956,0.4827,0.0756,84.1463,79.0854,62.3781
1595879218,0.9108,0.4877,0.0725,87.6829,75.0000,59.8781
1595879218,0.9393,0.4893,0.0690,91.6463,70.4878,56.8902
1595879218,0.9438,0.4786,0.0590,94.3902,67.9268,54.2073
1595879218,0.9113,0.4573,0.0488,96.6463,68.5366,51.0366
1595879218,0.8945,0.4513,0.0460,100.0000,69.6341,47.5000
1595879218,0.9075,0.4559,0.0518,103.0488,69.0244,43.9024
1595879218,0.9298,0.4572,0.0569,105.4878,67.6220,40.7317
1595879218,0.9301,0.4557,0.0515,108.1707,66.8293,37.7439
1595879218,0.9106,0.4633,0.0527,111.6463,65.6707,35.1829
1595879218,0.8929,0.4539,0.0576,116.8902,60.0610,31.7073
1595879218,0.8763,0.4418,0.0525,118.7805,57.5610,30.6707
1595879218,0.9117,0.3855,0.0411,120.8537,54.4512,26.4024
1595879218,0.9276,0.3826,0.0297,120.4878,57.8049,24.2683
1595879218,0.9282,0.4341,0.0132,121.6463,66.8902,19.2683
1595879218,0.8993,0.4479,-0.0027,120.9146,67.7439,16.4634
1595879218,0.9089,0.4701,-0.0100,122.1951,64.5732,14.5122
1595879218,0.9291,0.4705,-0.0147,123.2927,57.9268,13.9024
1595879218,0.9189,0.4529,-0.0170,122.5000,51.5854,14.2683
1595879218,0.9037,0.4433,-0.0181,122.3781,48.1707,13.7805
1595879218,0.9012,0.4434,-0.0214,122.6829,47.4390,13.2317
1595879218,0.9197,0.4447,-0.0200,122.7439,48.4146,12.8659
1595879218,0.9471,0.4374,-0.0174,122.3171,51.4024,12.0732
1595879218,0.9498,0.4380,-0.0159,121.5854,57.5000,11.2805
1595879218,0.9235,0.4415,-0.0121,121.6463,63.9634,10.5488
1595879218,0.9045,0.4497,-0.0038,121.5244,67.2561,10.0610
1595879218,0.9091,0.4586,0.0068,121.0366,65.4878,9.1463
1595879218,0.9264,0.4570,0.0081,119.9390,60.4268,8.2927
1595879218,0.9358,0.4553,-0.0055,119.0244,55.0610,7.5000
1595879218,0.9487,0.4604,-0.0171,118.5366,50.6707,6.8902
1595879218,0.9756,0.4700,-0.0240,117.9878,47.7439,5.7927
1595879218,0.9934,0.4738,-0.0281,117.2561,47.6829,4.6951
1595879218,0.9890,0.4800,-0.0305,117.3171,50.4878,3.7805
1595879218,0.9855,0.4926,-0.0273,117.8049,54.4512,3.0488
1595879218,0.9886,0.5000,-0.0148,117.9268,58.2317,2.4390
1595879218,0.9804,0.4996,-0.0038,117.8049,61.1585,2.3780
1595879218,0.9527,0.5007,-0.0037,117.6220,64.0854,2.9268
1595879218,0.9206,0.5090,-0.0025,117.9268,67.0732,3.5366
1595879218,0.9039,0.5099,0.0040,118.1098,68.5976,3.7805
1595879218,0.9025,0.5093,0.0077,117.3171,68.2317,3.7805
1595879218,0.9094,0.5103,0.0122,116.2195,67.0732,4.0854
1595879218,0.9313,0.5187,0.0111,115.0610,66.4634,3.9634
1595879218,0.9647,0.5281,0.0065,113.5366,67.0732,4.0244
1595879219,0.9712,0.5373,-0.0031,111.4024,69.5122,4.3293
1595879219,0.9563,0.5411,-0.0035,110.0610,72.6829,4.9390
1595879219,0.9462,0.5381,0.0030,108.5366,74.1463,5.3049
1595879219,0.9418,0.5303,-0.0018,106.0976,73.4146,5.7317
1595879219,0.9264,0.5281,-0.0030,103.9634,72.7439,6.3415
1595879219,0.8980,0.5230,0.0060,102.3171,73.4756,6.7683
1595879219,0.8790,0.5104,0.0110,100.0000,74.2073,6.5244
1595879219,0.8699,0.5023,0.0084,97.5000,73.7805,6.1585
1595879219,0.8723,0.5093,-0.0027,95.3659,72.9268,6.1585
1595879219,0.8814,0.5147,-0.0079,93.1707,71.5854,6.4024
1595879219,0.8970,0.5140,-0.0190,90.1220,69.5122,6.5244
1595879219,0.8960,0.5128,-0.0356,85.4878,68.4756,6.9512
1595879219,0.8938,0.5098,-0.0436,83.6585,68.9024,7.0732
1595879219,0.8934,0.5098,-0.0475,81.5854,69.4512,7.0122
1595879219,0.8820,0.5109,-0.0538,79.6341,70.9146,6.9512
1595879219,0.8667,0.5227,-0.0522,78.1098,72.7439,6.8293
1595879219,0.8693,0.5395,-0.0465,76.4634,74.1463,6.3415
1595879219,0.8691,0.5555,-0.0444,74.2073,74.6951,5.9756
1595879219,0.8505,0.5844,-0.0421,72.2561,74.0854,5.6098
1595879219,0.8254,0.6142,-0.0331,70.4878,71.6463,5.3049
1595879219,0.7946,0.6324,-0.0253,68.1707,66.7683,4.9390
1595879219,0.7697,0.6309,-0.0242,65.1220,60.4268,4.4512
1595879219,0.7405,0.6149,-0.0236,62.4390,53.9634,3.7805
1595879219,0.7165,0.6042,-0.0097,60.2439,48.0488,3.4146
1595879219,0.7080,0.6001,0.0156,57.9878,42.8049,2.6220
1595879219,0.7111,0.6056,0.0420,55.3659,39.2073,1.2195
1595879219,0.7226,0.6065,0.0656,52.8049,37.2561,-0.2439
1595879219,0.7310,0.6196,0.0892,46.8902,35.7317,-2.8659
1595879219,0.7702,0.6779,0.0994,40.0000,27.4390,-6.7073
1595879219,0.8168,0.7261,0.1104,36.2805,20.2439,-9.6341
1595879219,0.8941,0.7730,0.1013,32.0732,13.0488,-13.6585
1595879219,0.9815,0.8113,0.0793,27.1951,6.8293,-18.8415
1595879219,1.0190,0.8573,0.0627,23.5366,1.5854,-23.3537
1595879219,1.0074,0.8875,0.0715,20.8537,-3.2317,-25.3659
1595879219,0.9700,0.8840,0.1108,18.0488,-6.1585,-26.2195
1595879219,0.9030,0.8641,0.1713,15.9756,-7.6829,-26.7683
1595879219,0.8441,0.8233,0.2103,14.2073,-9.0244,-25.9146
1595879219,0.7977,0.7839,0.2432,13.1098,-10.0610,-24.8780
1595879219,0.7538,0.7598,0.2690,13.2927,-11.3415,-22.7439
1595879219,0.7121,0.7399,0.2915,13.7805,-12.1341,-20.2439
1595879219,0.6761,0.7202,0.2908,13.7805,-12.1951,-18.2317
1595879219,0.6730,0.7203,0.2908,15.0000,-13.1098,-15.0610
1595879219,0.6854,0.7344,0.2993,16.8902,-16.5854,-11.8293
1595879219,0.7222,0.7466,0.3049,18.1707,-22.0732,-9.2073
1595879219,0.7440,0.7277,0.2825,17.9878,-27.1951,-6.5244
1595879219,0.7418,0.7111,0.2790,18.2317,-26.7073,-5.1220
1595879219,0.7475,0.6924,0.2872,17.6220,-26.0976,-4.2073
1595879219,0.7467,0.6755,0.2926,16.2805,-24.8171,-3.2317
1595879219,0.7324,0.6619,0.2911,14.8171,-22.5000,-2.1341
1595879219,0.7164,0.6607,0.3004,13.7195,-20.7927,-0.8537
1595879219,0.7010,0.6498,0.2981,11.9512,-20.4268,0.4878
1595879219,0.6819,0.6357,0.2784,9.5122,-21.0976,1.7073
1595879219,0.6783,0.6307,0.2526,8.2317,-22.3171,3.1707
1595879219,0.6949,0.6367,0.2415,7.2561,-23.7195,4.4512
1595879219,0.7180,0.6343,0.2265,5.5488,-24.3293,4.8780
1595879219,0.7310,0.6309,0.1965,3.9634,-21.7683,4.6341
1595879219,0.7480,0.6415,0.1743,3.4756,-16.5244,4.4512
1595879219,0.7648,0.6558,0.1675,3.5366,-11.1585,4.0854
1595879219,0.7849,0.6690,0.1710,3.1707,-6.0976,3.5976
1595879219,0.8082,0.6847,0.1877,3.2317,-1.5244,2.9878
1595879219,0.8061,0.6900,0.2014,3.4146,2.3171,2.8049
1595879219,0.7819,0.6897,0.2211,3.2317,4.6341,3.2317
1595879219,0.7690,0.6763,0.2382,2.6220,4.5732,3.7805
1595879219,0.7647,0.6465,0.2447,1.0976,3.1098,4.2073
1595879219,0.7531,0.6150,0.2460,-0.8537,1.7683,4.8171
1595879219,0.7279,0.5829,0.2330,-2.8659,1.5854,5.4268
1595879219,0.7193,0.5575,0.2261,-4.3902,2.7439,5.4268
1595879219,0.7233,0.5323,0.2215,-5.9756,4.2073,5.1220
1595879219,0.7216,0.5132,0.2215,-7.8049,5.4268,5.0610
1595879219,0.7338,0.5007,0.2128,-9.7561,6.3415,5.2439
1595879219,0.7559,0.4954,0.2001,-11.3415,7.9878,5.3659
1595879219,0.7619,0.4976,0.1882,-12.3780,10.1829,6.4634
1595879219,0.7761,0.5004,0.1848,-13.0488,11.7683,7.6829
1595879219,0.7977,0.5021,0.1816,-14.0854,13.1707,8.4146
1595879219,0.8037,0.5013,0.1741,-15.4268,15.7317,9.3293
1595879219,0.7933,0.5049,0.1620,-16.3415,19.2073,10.2439
1595879219,0.7814,0.5086,0.1546,-17.1341,22.1341,11.0976
1595879219,0.7864,0.5133,0.1509,-17.8659,22.3171,11.2805
1595879219,0.8018,0.5220,0.1459,-19.0854,20.3049,11.0976
1595879219,0.8128,0.5278,0.1417,-20.4878,18.2927,11.0366
1595879219,0.8163,0.5408,0.1372,-21.1585,17.1951,10.7927
1595879219,0.8108,0.5526,0.1338,-20.9756,16.8902,10.7317
1595879219,0.8076,0.5573,0.1359,-20.7927,15.5488,11.0976
1595879219,0.8077,0.5557,0.1397,-20.6098,13.5976,11.1585
1595879219,0.8054,0.5596,0.1464,-19.7561,11.8902,11.4024
1595879219,0.7946,0.5582,0.1605,-18.6585,10.8537,12.0122
1595879219,0.7814,0.5601,0.1685,-17.9268,9.3293,12.6220
1595879219,0.7626,0.5649,0.1792,-17.2561,7.6220,13.4146
1595879219,0.7407,0.5615,0.1825,-16.5244,5.7927,14.1463
1595879219,0.7336,0.5574,0.1885,-15.3049,2.1951,14.7561
1595879219,0.7529,0.5554,0.1852,-14.5122,-2.9268,14.6341
1595879219,0.7822,0.5688,0.1608,-14.1463,-7.5610,13.7195
1595879219,0.8400,0.6092,0.1446,-12.2561,-11.5854,12.1341
1595879219,0.9280,0.6516,0.1472,-10.0000,-15.8537,8.0488
1595879219,1.0516,0.6992,0.1434,-9.5732,-18.4756,1.0976
1595879219,1.1616,0.7721,0.1218,-9.1463,-17.5610,-7.0122
1595879219,1.1663,0.8472,0.1017,-8.2317,-12.6829,-12.2561
1595879219,1.0986,0.8796,0.0928,-6.0976,-5.9756,-15.8537
1595879219,1.0028,0.8588,0.0977,-3.9024,-2.4390,-19.4512
1595879219,0.9130,0.8120,0.1006,-2.8659,-5.6707,-21.7683
1595879219,0.8615,0.7737,0.1096,-1.7683,-13.5976,-22.5000
1595879219,0.8201,0.7462,0.1172,-0.6707,-22.0122,-22.8659
1595879219,0.7709,0.7257,0.1190,0.7317,-27.2561,-22.3171
1595879219,0.7415,0.7241,0.1255,3.4756,-29.7561,-20.8537
1595879219,0.7367,0.7401,0.1263,6.8293,-31.5244,-18.7805
1595879219,0.7433,0.7637,0.1365,8.9024,-31.8293,-16.5854
1595879219,0.7424,0.7751,0.1309,9.6341,-30.4268,-15.0000
1595879220,0.7397,0.7684,0.1183,9.2683,-27.7439,-14.5122
1595879220,0.7585,0.7632,0.0973,8.4146,-25.3659,-14.4512
1595879220,0.7881,0.7670,0.0782,7.6220,-22.9878,-14.6341
1595879220,0.8030,0.7749,0.0750,7.3171,-19.8171,-15.1220
1595879220,0.7947,0.7722,0.0685,6.2805,-16.0366,-16.2805
1595879220,0.8022,0.7649,0.0579,5.0000,-12.9878,-17.4390
1595879220,0.8010,0.7694,0.0540,4.2683,-12.0122,-18.0488
1595879220,0.7964,0.7718,0.0530,3.7805,-12.7439,-18.1707
1595879220,0.7870,0.7667,0.0466,2.9268,-13.7805,-18.2317
1595879220,0.7642,0.7537,0.0406,2.3780,-14.8171,-17.9268
1595879220,0.7332,0.7343,0.0421,2.3171,-15.6098,-17.8659
1595879220,0.7130,0.7198,0.0428,2.0122,-16.5244,-18.3537
1595879220,0.7023,0.7153,0.0442,1.5854,-17.5000,-18.9024
1595879220,0.7050,0.7143,0.0450,1.2805,-18.4756,-19.1463
1595879220,0.7190,0.7075,0.0380,0.6707,-19.4512,-19.5732
1595879220,0.7282,0.7034,0.0236,-0.2439,-20.2439,-20.0000
1595879220,0.7306,0.7124,0.0203,-0.5488,-20.2439,-19.5732
1595879220,0.7296,0.7114,0.0172,-1.0366,-19.7561,-19.7561
1595879220,0.7211,0.7059,0.0154,-1.8902,-19.1463,-20.9146
1595879220,0.7098,0.7074,0.0162,-2.2561,-18.2927,-21.6463
1595879220,0.6846,0.7020,0.0173,-2.2561,-17.4390,-22.1341
1595879220,0.6711,0.6950,0.0121,-2.0122,-17.9268,-22.7439
1595879220,0.6609,0.6932,0.0056,-1.6463,-19.6341,-23.7195
1595879220,0.6814,0.7059,0.0048,-1.3415,-23.3537,-24.8780
1595879220,0.7138,0.7136,0.0111,-2.2561,-27.1341,-25.7927
1595879220,0.7406,0.7187,0.0250,-4.0854,-28.9024,-26.2195
1595879220,0.7587,0.7200,0.0379,-6.1585,-27.7439,-26.4634
1595879220,0.7531,0.7251,0.0414,-7.9268,-24.2683,-26.5244
1595879220,0.7538,0.7209,0.0362,-9.8171,-20.0610,-26.3415
1595879220,0.7249,0.7194,0.0259,-11.7683,-15.3049,-25.6707
1595879220,0.6830,0.7187,0.0251,-12.8049,-12.5610,-25.0000
1595879220,0.6821,0.7141,0.0455,-13.5366,-13.2317,-24.9390
1595879220,0.7030,0.7014,0.0501,-15.2439,-15.1829,-25.0610
1595879220,0.7001,0.7098,0.0493,-16.5244,-15.6098,-24.6951
1595879220,0.7090,0.7396,0.0590,-15.8537,-15.5488,-25.0000
1595879220,0.7328,0.7673,0.0695,-16.5854,-15.6098,-25.4268
1595879220,0.7567,0.7836,0.0631,-19.1463,-15.8537,-25.7927
1595879220,0.7666,0.7963,0.0543,-21.7683,-13.9634,-25.8537
1595879220,0.7435,0.8005,0.0535,-24.4512,-9.6951,-25.5488
1595879220,0.7189,0.7962,0.0479,-27.0732,-6.0976,-25.0610
1595879220,0.7040,0.7905,0.0504,-29.5122,-4.4512,-24.5732
1595879220,0.6986,0.7863,0.0490,-31.8902,-4.0854,-24.2073
1595879220,0.7037,0.7943,0.0450,-33.5976,-4.0244,-24.0244
1595879220,0.7154,0.8116,0.0401,-34.8171,-3.2927,-24.2073
1595879220,0.7266,0.8287,0.0441,-35.7927,-1.2805,-25.5488
1595879220,0.7395,0.8364,0.0474,-36.9512,2.3171,-27.6220
1595879220,0.7300,0.8439,0.0463,-38.7195,7.4390,-29.9390
1595879220,0.7098,0.8548,0.0512,-40.2439,12.5610,-32.9878
1595879220,0.7083,0.8729,0.0482,-41.2805,15.6098,-37.2561
1595879220,0.7101,0.8791,0.0460,-42.5610,15.3049,-41.7073
1595879220,0.7084,0.8770,0.0411,-43.8415,11.4024,-45.3659
1595879220,0.7112,0.8679,0.0462,-43.5976,5.6707,-48.4146
1595879220,0.7076,0.8480,0.0677,-42.3171,-0.4268,-50.2439
1595879220,0.7001,0.8105,0.0752,-40.6098,-5.8537,-51.4024
1595879220,0.6356,0.7795,0.0806,-37.7439,-9.1463,-52.5000
1595879220,0.6053,0.7809,0.1201,-32.1341,-12.6220,-52.4390
1595879220,0.5960,0.7629,0.1405,-28.4146,-20.4268,-52.8049
1595879220,0.5818,0.7381,0.1479,-25.9146,-28.1098,-51.9512
1595879220,0.5725,0.7319,0.1639,-22.0122,-31.5244,-51.5854
1595879220,0.5662,0.7332,0.1697,-18.2927,-32.6220,-50.8537
1595879220,0.5630,0.7280,0.1701,-17.1951,-32.6829,-50.1829
1595879220,0.5764,0.7303,0.1804,-15.9756,-31.2805,-50.4878
1595879220,0.5920,0.7464,0.1874,-14.3902,-28.1707,-50.9146
1595879220,0.5824,0.7568,0.1922,-13.6585,-23.3537,-50.7317
1595879220,0.5569,0.7656,0.1911,-13.4756,-17.5000,-50.7317
1595879220,0.5313,0.7729,0.1882,-13.0488,-12.0122,-50.4878
1595879220,0.5126,0.7749,0.1904,-12.9878,-8.4756,-50.2439
1595879220,0.4923,0.7825,0.1938,-13.7195,-6.3415,-50.0610
1595879220,0.4684,0.7894,0.1876,-14.4512,-5.0610,-50.0000
1595879220,0.4741,0.8090,0.1870,-14.8780,-4.8780,-50.2439
1595879220,0.4941,0.8319,0.1844,-15.1220,-5.9146,-50.5488
1595879220,0.5018,0.8485,0.1791,-16.1585,-6.2195,-50.4268
1595879220,0.4995,0.8617,0.1796,-16.9512,-4.2073,-50.6098
1595879220,0.4655,0.8775,0.1649,-17.3171,-0.7927,-50.9146
1595879220,0.4338,0.8910,0.1517,-17.1341,2.5610,-50.9146
1595879220,0.4369,0.9004,0.1614,-16.9512,5.0000,-51.6463
1595879220,0.4240,0.9114,0.1756,-17.3171,5.4268,-52.1951
1595879220,0.4077,0.9310,0.1844,-16.5244,1.7073,-51.5244
1595879220,0.4292,0.9414,0.1995,-15.6098,-4.2073,-51.0366
1595879220,0.4363,0.9415,0.2073,-16.2195,-8.4756,-50.7927
1595879220,0.4030,0.9440,0.2005,-17.8049,-7.8659,-50.1829
1595879220,0.3719,0.9536,0.1934,-17.5610,-3.8415,-50.4268
1595879220,0.3578,0.9597,0.1780,-17.2561,0.0000,-50.8537
1595879220,0.3700,0.9601,0.1683,-16.4024,1.0366,-50.8537
1595879220,0.3860,0.9636,0.1636,-15.1829,-0.4268,-50.4878
1595879220,0.3782,0.9866,0.1765,-12.2561,-3.7805,-49.2683
1595879220,0.3803,0.9963,0.1916,-9.2073,-8.9024,-47.6829
1595879220,0.3995,1.0003,0.2076,-8.2317,-13.3537,-46.0366
1595879220,0.4281,1.0090,0.2202,-6.8902,-15.3659,-43.7195
1595879220,0.4234,0.9964,0.2027,-6.1585,-11.2805,-41.0366
1595879220,0.3885,0.9830,0.1859,-5.9756,-1.7683,-38.1707
1595879220,0.3608,0.9800,0.1867,-5.0000,9.0854,-35.5488
1595879220,0.3304,0.9752,0.1897,-3.9024,17.8049,-33.1098
1595879220,0.3145,0.9842,0.2109,-2.6829,20.0000,-30.3659
1595879220,0.3172,0.9962,0.2249,-1.6463,16.0366,-27.6220
1595879220,0.3468,0.9943,0.2164,-1.0976,11.1585,-26.1585
1595879220,0.3678,0.9900,0.2184,-0.3049,9.0244,-25.1220
1595879220,0.3641,0.9941,0.2240,1.1585,9.6951,-23.7195
1595879220,0.3430,0.9922,0.2186,2.7439,10.9756,-22.5610
1595879220,0.3109,0.9852,0.2042,2.8659,11.5854,-21.3415
1595879220,0.3051,0.9943,0.2043,2.6829,10.8537,-19.3293
1595879220,0.3348,1.0055,0.2158,2.3171,8.8415,-17.6220
1595879220,0.3494,1.0025,0.2159,0.3659,6.0366,-16.0366
1595879220,0.3306,0.9962,0.2117,-1.3415,5.1829,-14.6951
1595879220,0.3079,0.9910,0.2080,-1.4634,7.0122,-14.4512
1595879220,0.2985,0.9965,0.2119,-1.4024,8.2927,-14.2683
1595879220,0.2349,1.0110,0.1145,-2.8049,8.8415,-13.5976
1595879220,0.1608,1.0026,0.1978,-6.8902,16.2195,-13.7805
1595879220,0.1318,0.9774,0.2543,-6.7683,31.4024,-19.8171
1595879220,0.3887,0.9538,0.2417,-2.1951,21.2195,-21.2195
1595879220,0.4302,0.9380,0.1590,-10.7927,-1.2195,-7.3171
1595879220,0.2702,0.9477,0.1607,-12.1951,-3.9634,-2.3780
1595879220,0.1981,0.9784,0.1786,-6.4024,7.8659,-10.1220
1595879221,0.3511,0.9948,0.1983,-3.3537,4.2073,-11.7073
1595879221,0.3981,0.9601,0.2063,-10.5488,-2.6829,-5.1220
1595879221,0.3410,0.9498,0.1866,-10.2439,2.9268,-4.8171
1595879221,0.2986,0.9874,0.1802,-6.9512,10.9756,-6.1585
1595879221,0.2899,0.9938,0.1812,-6.0976,12.2561,-5.6707
1595879221,0.3020,0.9899,0.1860,-7.1951,9.4512,-6.8293
1595879221,0.2938,0.9769,0.1790,-6.8902,7.6220,-7.1951
1595879221,0.2896,0.9647,0.1855,-6.7683,7.2561,-6.7683
1595879221,0.2958,0.9688,0.2020,-6.5854,8.2317,-6.3415
1595879221,0.2886,0.9733,0.2013,-5.9756,9.2683,-6.3415
1595879221,0.2756,0.9740,0.1946,-5.6707,10.0000,-6.5244
1595879221,0.2863,0.9622,0.1891,-5.9146,10.2439,-7.2561
1595879221,0.3180,0.9584,0.1846,-6.1585,10.3659,-8.1707
1595879221,0.3417,0.9660,0.1885,-6.0366,11.0366,-8.4756
1595879221,0.3335,0.9678,0.2065,-5.7317,13.5976,-9.2073
1595879221,0.2885,0.9667,0.2217,-5.0610,18.3537,-11.1585
1595879221,0.2534,0.9711,0.2230,-4.5732,20.7927,-12.1951
1595879221,0.2453,0.9706,0.2299,-4.6951,18.5976,-12.4390
1595879221,0.2541,0.9677,0.2435,-5.0610,13.9634,-13.2317
1595879221,0.2791,0.9674,0.2611,-6.4634,10.8537,-13.6585
1595879221,0.3098,0.9612,0.2634,-8.2317,10.2439,-13.7195
1595879221,0.3318,0.9601,0.2521,-9.3902,12.9268,-13.6585
1595879221,0.3273,0.9821,0.2432,-8.6585,16.8293,-13.9634
1595879221,0.2215,1.0046,0.1511,-6.9512,18.3537,-14.2683
1595879221,0.0730,0.9065,0.1592,-0.0610,14.0854,-19.7561
1595879221,0.2004,0.9486,0.2414,-0.5488,-1.5854,-20.1829
1595879221,0.4432,0.9920,0.2452,-8.1098,-14.5122,-16.5244
1595879221,0.4755,0.9710,0.2144,-11.9512,-10.9756,-15.0610
1595879221,0.3401,0.9693,0.1976,-7.9268,6.2805,-10.7927
1595879221,0.2445,0.9733,0.1943,-2.6829,19.6341,-12.3171
1595879221,0.2556,0.9764,0.2142,-2.3780,19.8780,-14.8780
1595879221,0.3126,0.9716,0.2375,-5.7317,13.6585,-13.4146
1595879221,0.3445,0.9547,0.2499,-7.5000,8.4146,-12.6829
1595879221,0.3250,0.9490,0.2396,-6.5244,6.6463,-11.4024
1595879221,0.2748,0.9652,0.2237,-3.7195,7.9878,-8.9634
1595879221,0.2465,0.9718,0.2153,-1.0366,8.5366,-7.8049
1595879221,0.2255,0.9622,0.2104,-0.6098,6.5854,-7.8049
1595879221,0.2023,0.9542,0.2179,-0.8537,3.4146,-7.3171
1595879221,0.1783,0.9542,0.2300,-0.3049,0.6098,-6.9512
1595879221,0.1614,0.9492,0.2425,-0.6098,-2.2561,-6.5854
1595879221,0.1865,0.9521,0.2585,-1.7683,-5.6098,-5.9756
1595879221,0.2200,0.9672,0.2631,-3.2927,-7.8049,-4.3902
1595879221,0.2412,0.9766,0.2535,-4.2073,-9.1463,-2.5000
1595879221,0.2609,0.9768,0.2283,-4.5732,-10.7927,-1.2805
1595879221,0.2730,0.9749,0.2189,-4.1463,-12.8659,-0.4268
1595879221,0.2842,0.9734,0.2304,-4.0854,-14.3902,0.5488
1595879221,0.3247,0.9827,0.2356,-4.4512,-15.2439,0.8537
1595879221,0.3643,0.9975,0.2251,-5.0610,-13.4756,2.1951
1595879221,0.3285,0.9969,0.2283,-5.3659,-8.8415,4.6951
1595879221,0.2786,1.0026,0.2418,-4.7561,-0.3049,4.8171
1595879221,0.2668,1.0145,0.2587,-5.1220,7.3780,2.8659
1595879221,0.2613,1.0272,0.2560,-6.8902,8.4146,3.4756
1595879221,0.2643,1.0316,0.2601,-7.5610,3.9634,4.9390
1595879221,0.2704,1.0337,0.2800,-7.9268,-1.4024,4.6951
1595879221,0.3027,1.0659,0.2512,-7.6829,-5.1220,4.9390
1595879221,0.3543,1.0795,0.2471,-7.8659,-5.0000,7.1341
1595879221,0.3303,1.0695,0.2561,-8.7805,-2.1341,10.4878
1595879221,0.2780,1.0807,0.2587,-10.3659,2.8049,11.1585
1595879221,0.2494,1.0894,0.2822,-12.8049,8.4756,7.2561
1595879221,0.2433,1.0884,0.3058,-16.4024,11.8902,5.6707
1595879221,0.2360,1.0872,0.3106,-19.9390,13.7195,7.8659
1595879221,0.2477,1.0969,0.2891,-22.0732,16.6463,10.5488
1595879221,0.2217,1.1284,0.2652,-20.0000,21.0366,13.4146
1595879221,0.2078,1.1335,0.2734,-17.8659,22.3171,14.6341
1595879221,0.2385,1.1105,0.3055,-22.1951,20.8537,14.5732
1595879221,0.2463,1.0872,0.3311,-27.8049,19.0854,16.0366
1595879221,0.2053,1.0715,0.3432,-31.7073,23.0488,18.2927
1595879221,0.1456,1.0605,0.3474,-34.4512,32.1341,19.6951
1595879221,0.1131,1.0519,0.3514,-36.5244,39.3293,21.1585
1595879221,0.0918,1.0494,0.3550,-39.0854,41.7683,22.9878
1595879221,0.0606,1.0225,0.3423,-41.0976,40.6098,25.1220
1595879221,0.0343,1.0103,0.3112,-40.9756,35.7317,26.8902
1595879221,0.0276,1.0400,0.3028,-37.1951,26.5244,29.2683
1595879221,0.0245,1.0344,0.3138,-38.1707,14.0244,29.9390
1595879221,0.0286,1.0115,0.3273,-43.4756,2.2561,28.5366
1595879221,-0.0008,1.0015,0.3286,-46.5244,-4.5732,27.8659
1595879221,-0.0539,0.9934,0.3223,-46.8902,-7.3171,27.9268
1595879221,-0.0923,0.9819,0.3135,-46.3415,-10.9146,26.5854
1595879221,-0.1064,0.9655,0.3230,-46.4024,-18.8415,23.7805
1595879221,-0.0900,0.9536,0.3350,-46.8902,-28.2927,21.1585
1595879221,-0.0792,0.9366,0.3318,-47.8049,-36.8293,17.5610
1595879221,-0.0615,0.9480,0.3297,-46.1585,-43.9634,14.6341
1595879221,-0.0329,0.9624,0.3069,-43.5366,-51.1585,11.6463
1595879221,-0.0117,0.9614,0.2963,-43.6585,-56.8902,7.1341
1595879221,-0.0083,0.9523,0.2999,-44.8780,-58.9024,2.0732
1595879221,-0.0269,0.9474,0.3081,-44.5732,-57.6829,-3.4756
1595879221,-0.0435,0.9507,0.3058,-44.1463,-55.7317,-9.0244
1595879221,-0.0584,0.9418,0.2960,-44.3293,-55.5488,-14.5122
1595879221,-0.0640,0.9277,0.2891,-44.6341,-57.0122,-20.2439
1595879221,-0.0583,0.9216,0.2855,-44.2683,-59.4512,-26.0366
1595879221,-0.0452,0.9180,0.2838,-43.5366,-62.6829,-31.4024
1595879221,-0.0419,0.9156,0.2775,-42.8659,-66.8293,-36.2805
1595879221,-0.0386,0.9020,0.2693,-42.3171,-72.1951,-41.0366
1595879221,-0.0112,0.8898,0.2554,-41.1585,-78.4756,-45.6098
1595879221,0.0212,0.8998,0.2321,-38.7805,-85.0000,-49.3902
1595879221,0.0408,0.9118,0.2115,-36.3415,-90.9756,-52.8049
1595879221,0.0539,0.9155,0.1957,-35.3049,-96.0976,-57.3781
1595879221,0.0815,0.9251,0.2015,-34.6951,-100.9146,-62.3171
1595879221,0.1076,0.9437,0.2036,-33.2317,-105.3659,-67.0122
1595879222,0.1250,0.9482,0.2147,-32.3171,-107.6829,-71.1585
1595879222,0.1362,0.9413,0.2217,-31.7683,-108.0488,-75.3049
1595879222,0.1502,0.9427,0.2257,-30.6098,-107.1341,-79.2683
1595879222,0.1708,0.9453,0.2269,-29.2073,-105.6707,-82.4390
1595879222,0.1780,0.9365,0.2238,-28.2927,-104.3293,-85.3049
1595879222,0.1830,0.9302,0.2142,-26.8902,-103.5976,-87.4390
1595879222,0.1951,0.9390,0.2026,-24.3902,-103.7195,-89.0854
1595879222,0.2108,0.9495,0.2000,-21.5244,-105.9146,-90.6098
1595879222,0.2251,0.9563,0.2006,-19.8780,-108.7195,-91.8293
1595879222,0.2419,0.9567,0.1994,-18.2927,-111.0366,-92.8049
1595879222,0.2565,0.9542,0.1947,-15.7927,-112.5000,-93.3537
1595879222,0.2676,0.9580,0.1895,-12.8049,-112.9268,-93.3537
1595879222,0.2802,0.9573,0.1895,-10.5488,-112.6829,-93.1707
1595879222,0.2913,0.9530,0.1959,-9.6951,-111.2805,-93.2317
1595879222,0.2942,0.9487,0.1983,-8.6585,-108.9634,-92.7439
1595879222,0.2939,0.9466,0.1933,-7.1341,-105.8537,-91.3415
1595879222,0.3030,0.9407,0.2001,-5.4878,-103.1707,-90.0610
1595879222,0.3124,0.9402,0.2130,-4.0854,-100.9756,-89.0244
1595879222,0.3241,0.9465,0.2261,-2.8659,-98.2927,-87.6829
1595879222,0.3279,0.9672,0.2300,-1.2805,-94.6951,-86.0366
1595879222,0.3289,0.9797,0.2325,0.9756,-91.2805,-84.5122
1595879222,0.3375,0.9811,0.2402,2.4390,-89.3293,-83.1098
1595879222,0.3491,0.9815,0.2401,3.4146,-88.3537,-81.5244
1595879222,0.3535,0.9891,0.2390,4.6951,-86.8902,-79.7561
1595879222,0.3553,1.0071,0.2382,6.4634,-85.3049,-78.2317
1595879222,0.3630,1.0251,0.2479,7.9268,-84.2073,-77.1951
1595879222,0.3702,1.0503,0.2621,9.2073,-83.3537,-76.7073
1595879222,0.3774,1.0765,0.2814,10.3659,-82.2561,-76.2805
1595879222,0.3843,1.0887,0.2974,11.4024,-80.3049,-76.0976
1595879222,0.3901,1.0730,0.3039,12.1341,-77.6829,-76.0366
1595879222,0.3974,1.0368,0.3017,12.8659,-75.7927,-75.0610
1595879222,0.4058,0.9951,0.2916,13.6585,-75.6707,-73.1098
1595879222,0.4119,0.9572,0.2802,13.9024,-77.0122,-70.4878
1595879222,0.4191,0.9302,0.2716,12.8659,-78.5976,-67.5610
1595879222,0.4222,0.9184,0.2651,11.4634,-79.5732,-64.7561
1595879222,0.4231,0.9186,0.2606,10.0610,-79.3293,-62.3171
1595879222,0.4189,0.9310,0.2540,9.1463,-77.8659,-59.6951
1595879222,0.4133,0.9612,0.2481,8.9634,-75.7927,-56.8902
1595879222,0.4096,0.9960,0.2559,8.9024,-73.4146,-54.6951
1595879222,0.4161,1.0292,0.2578,8.4756,-71.7683,-52.9878
1595879222,0.4341,1.0624,0.2542,8.3537,-71.2195,-51.6463
1595879222,0.4565,1.0736,0.2530,8.5366,-71.5244,-50.7317
1595879222,0.4758,1.0566,0.2541,9.0244,-72.2561,-50.0610
1595879222,0.4954,1.0342,0.2495,9.0854,-73.4146,-48.9024
1595879222,0.5119,1.0184,0.2432,8.6585,-74.1463,-47.6829
1595879222,0.5156,1.0113,0.2515,8.4146,-73.7195,-46.7073
1595879222,0.5057,1.0090,0.2732,7.9878,-71.4024,-45.0610
1595879222,0.5015,1.0112,0.2996,7.6829,-67.9878,-42.3780
1595879222,0.5052,1.0113,0.3199,7.7439,-64.5122,-39.6951
1595879222,0.5118,1.0032,0.3404,8.1098,-60.9756,-37.1951
1595879222,0.5101,0.9822,0.3503,8.7195,-56.8293,-34.0244
1595879222,0.5106,0.9565,0.3615,9.3902,-52.5610,-29.7561
1595879222,0.5145,0.9266,0.3741,10.0000,-49.4512,-24.8780
1595879222,0.5145,0.8848,0.3776,9.2073,-47.4390,-19.4512
1595879222,0.5084,0.8461,0.3671,7.8049,-45.8537,-13.8415
1595879222,0.5039,0.8186,0.3520,6.8902,-44.3293,-8.1707
1595879222,0.4929,0.8062,0.3363,5.7927,-42.1341,-2.3780
1595879222,0.4795,0.8071,0.3223,4.6951,-39.5732,3.3537
1595879222,0.4668,0.8139,0.3063,3.5976,-36.5244,9.0244
1595879222,0.4528,0.8168,0.2957,2.1951,-33.2317,14.0854
1595879222,0.4475,0.8234,0.2872,0.6098,-30.3659,18.4146
1595879222,0.4545,0.8300,0.2859,-0.9756,-28.4146,21.8293
1595879222,0.4568,0.8318,0.2803,-2.3171,-27.0122,24.7561
1595879222,0.4655,0.8384,0.2850,-3.5366,-25.9146,27.1951
1595879222,0.4813,0.8522,0.2939,-4.8780,-25.7317,29.3902
1595879222,0.4905,0.8591,0.2990,-6.7683,-25.9146,31.1585
1595879222,0.4950,0.8687,0.2963,-8.7195,-25.5488,32.6829
1595879222,0.4960,0.8862,0.2897,-10.0000,-24.2073,34.3902
1595879222,0.4957,0.9034,0.2831,-10.9756,-22.1341,36.2195
1595879222,0.4907,0.9187,0.2861,-11.6463,-20.2439,38.0488
1595879222,0.4907,0.9368,0.2859,-12.1341,-19.0854,39.5732
1595879222,0.4960,0.9510,0.2925,-12.5610,-18.5976,41.1585
1595879222,0.5018,0.9628,0.2993,-13.1098,-18.3537,43.0488
1595879222,0.5045,0.9711,0.3070,-13.2927,-17.6829,45.0000
1595879222,0.5102,0.9808,0.3143,-13.1098,-16.7683,47.0732
1595879222,0.5137,0.9929,0.3194,-12.8659,-15.4878,49.4512
1595879223,0.5114,1.0027,0.3212,-12.9268,-13.5976,51.8293
1595879223,0.5109,1.0042,0.3226,-13.1707,-10.6098,54.2073
1595879223,0.4803,1.0116,0.3340,-14.6951,2.0732,61.7073
1595879223,0.4702,1.0114,0.3347,-15.4878,6.7683,63.5976
1595879223,0.4556,1.0135,0.3385,-15.9756,11.4634,65.9756
1595879223,0.4214,1.0039,0.3559,-17.1951,20.4878,69.6341
1595879223,0.3362,0.9758,0.3874,-18.4756,34.4512,73.7805
1595879223,0.3226,0.9759,0.3899,-18.8415,35.7317,74.0244
1595879223,0.3099,0.9717,0.3941,-18.6585,35.3049,73.5366
1595879223,0.3017,0.9634,0.4005,-19.0244,33.9634,72.5000
1595879223,0.2689,0.9296,0.4112,-19.0244,29.7561,66.7683
1595879223,0.2453,0.9029,0.4154,-19.4512,29.0854,60.7927
1595879223,0.2360,0.8976,0.4230,-19.6341,29.5122,57.1951
1595879223,0.2253,0.8944,0.4282,-20.0610,30.3049,53.2317
1595879223,0.2196,0.9030,0.4330,-20.7317,31.0976,49.4512
1595879223,0.2052,0.9194,0.4315,-21.3415,32.4390,45.2439
1595879223,0.1931,0.9501,0.4227,-21.8902,33.2927,40.3049
1595879223,0.2003,0.9846,0.4166,-21.5244,33.2317,34.5732
1595879223,0.2089,1.0178,0.4244,-20.4878,32.7439,27.8659
1595879223,0.2100,1.0361,0.4329,-19.2073,31.9512,20.3659
1595879223,0.2047,1.0323,0.4383,-18.2317,31.2195,12.5610
1595879223,0.1924,1.0185,0.4396,-16.9512,29.9390,5.5488
1595879223,0.1926,1.0039,0.4462,-15.3049,26.9512,-0.7927
1595879223,0.2006,0.9839,0.4492,-14.4512,22.1951,-7.4390
1595879223,0.2148,0.9609,0.4487,-14.2683,16.8902,-14.6341
1595879223,0.2318,0.9432,0.4393,-13.9634,11.4634,-21.1585
1595879223,0.2451,0.9321,0.4238,-13.9024,6.0976,-26.7683
1595879223,0.2579,0.9272,0.4136,-13.4146,1.4634,-31.8293
1595879223,0.2717,0.9310,0.4037,-12.0732,-2.2561,-36.5244
1595879223,0.2834,0.9255,0.4012,-10.7317,-5.1829,-40.0610
1595879223,0.3037,0.9102,0.4036,-10.2439,-7.7439,-43.0488
1595879223,0.3210,0.8908,0.4092,-10.3049,-9.9390,-45.0000
1595879223,0.3464,0.9034,0.3950,-15.1220,-12.8659,-43.6585
1595879223,0.3367,0.9036,0.3895,-15.9756,-14.8780,-41.4634
1595879223,0.3342,0.8940,0.3841,-16.9512,-17.7439,-39.0244
1595879223,0.3255,0.8785,0.3652,-18.7195,-24.9390,-33.1707
1595879223,0.3282,0.8671,0.3633,-19.6951,-29.0244,-30.4878
1595879223,0.3403,0.8622,0.3545,-20.7927,-32.7439,-27.9878
1595879223,0.3633,0.8515,0.3487,-20.5488,-40.4878,-21.2195
1595879223,0.3737,0.8437,0.3587,-19.3293,-42.3780,-19.5732
1595879223,0.3652,0.7456,0.3887,-14.6341,-33.2317,-10.3659
1595879223,0.3564,0.7203,0.3672,-9.3293,-28.5366,-5.0610
1595879223,0.3964,0.7022,0.4357,-1.2805,-6.8902,-0.2439
1595879223,0.4589,0.7091,0.4539,1.0976,-12.3171,3.9024
1595879223,0.4910,0.7025,0.4951,1.4634,-17.3780,10.0000
1595879223,0.4969,0.6883,0.5370,0.7317,-17.1951,15.1829
1595879223,0.5239,0.7042,0.5690,-0.9756,-12.5000,20.6707
1595879223,0.5303,0.7070,0.5691,-2.5000,-9.3902,23.2927
1595879223,0.5485,0.7206,0.5773,-3.4146,-2.9878,28.9634
1595879223,0.5894,0.7489,0.5759,-8.1098,3.5366,39.0244
1595879223,0.5969,0.7554,0.5688,-9.5122,4.8780,42.6829
1595879223,0.5822,0.7219,0.5459,-18.5976,4.7561,59.5122
1595879223,0.5988,0.7044,0.5271,-19.7561,2.7439,62.8659
1595879224,0.6144,0.6865,0.5139,-20.7317,0.6098,66.2195
1595879224,0.6948,0.6765,0.5013,-19.8171,-0.9146,70.3659
1595879224,0.7819,0.6948,0.5140,-12.9268,17.6220,70.4268
1595879224,0.8196,0.7006,0.5310,-9.9390,26.6463,70.1220
1595879224,0.8364,0.6974,0.5474,-7.5000,37.0732,70.4878
1595879224,0.8523,0.7068,0.5639,-3.7805,47.9878,70.4268
1595879224,0.8754,0.7158,0.5732,0.0000,58.1707,70.4878
1595879224,0.8414,0.6963,0.5709,8.0488,76.3415,73.7195
1595879224,0.8022,0.6727,0.5522,13.0488,81.2195,77.8049
1595879224,0.7724,0.6562,0.5248,17.0732,81.2805,83.2927
1595879224,0.7622,0.6531,0.4921,20.1829,77.3781,90.7317
1595879224,0.7509,0.6179,0.4733,19.4512,68.2317,108.8415
1595879224,0.7700,0.6250,0.4720,18.9634,77.0122,116.8902
1595879224,0.7684,0.6311,0.4785,18.5976,88.0488,118.6585
1595879224,0.7373,0.6319,0.4897,18.5366,100.8537,118.6585
1595879224,0.6647,0.6413,0.4545,20.3049,124.0854,113.1098
1595879224,0.6361,0.6715,0.4356,18.0488,120.1829,96.7073
1595879224,0.5920,0.6836,0.4486,18.2927,120.1220,91.0976
1595879224,0.5480,0.6962,0.4484,20.5488,119.2683,85.3659
1595879224,0.5165,0.7022,0.4338,22.4390,116.5244,80.3049
1595879224,0.4983,0.7025,0.4206,24.6341,106.2805,71.0976
1595879224,0.4961,0.6893,0.4011,23.7805,102.6220,65.8537
1595879224,0.4918,0.6774,0.3821,22.4390,101.7683,60.4878
1595879224,0.4798,0.6709,0.3821,21.8902,102.9878,54.8781
1595879224,0.4226,0.6653,0.3820,22.8049,105.0610,48.7805
1595879224,0.3640,0.6594,0.3661,24.8171,106.0976,42.9268
1595879224,0.3654,0.6443,0.3158,26.5244,103.1707,37.5610
1595879224,0.4687,0.6552,0.2922,28.8415,94.0244,33.9024
1595879224,0.5123,0.6424,0.3428,35.7927,85.9146,25.3659
1595879224,0.4144,0.6710,0.4282,40.6098,97.0732,18.4756
1595879224,0.0557,0.7048,0.5336,44.5122,117.3781,2.7439
1595879224,0.2812,0.7834,0.4659,32.2561,38.6585,-12.9878
1595879224,0.2359,0.8979,0.5204,32.7439,21.0366,-29.1463
1595879224,0.2296,0.9131,0.5131,33.2317,15.4268,-32.0732
1595879224,0.1921,0.9130,0.5067,34.5732,2.8049,-34.5732
1595879224,0.2062,0.9308,0.5226,36.6463,-1.5854,-35.9146
1595879224,0.2228,0.9385,0.5527,37.6829,-5.3659,-35.2439
1595879224,0.2527,0.9432,0.5774,37.6220,-9.0854,-34.0244
1595879224,0.2686,0.9417,0.5836,36.8293,-11.2805,-32.5000
1595879224,0.2992,0.9052,0.6131,28.8415,-10.7317,-24.6951
1595879224,0.2756,0.8923,0.6146,25.1829,-7.6220,-22.3780
1595879224,0.2579,0.8795,0.5884,21.9512,-6.6463,-20.3049
1595879224,0.2336,0.8712,0.5753,19.4512,-8.5366,-17.6220
1595879224,0.2369,0.8665,0.5775,17.6220,-13.7805,-15.1829
1595879224,0.2797,0.8706,0.5983,13.5976,-23.3537,-13.8415
1595879224,0.2678,0.8443,0.6164,19.4512,-21.2805,-19.3293
1595879224,0.2514,0.8288,0.6051,21.4634,-26.2195,-20.6098
1595879224,0.3045,0.8015,0.5811,22.0122,-37.5000,-24.5122
1595879224,0.3759,0.8047,0.5959,22.4390,-35.5488,-27.1341
1595879224,0.3286,0.7616,0.6013,20.4268,-25.1220,-28.7195
1595879224,0.2015,0.7913,0.5226,18.2927,-33.5366,-30.4878
1595879224,0.2899,0.8085,0.5223,12.4390,-47.9268,-31.0976
1595879224,0.3414,0.7832,0.5481,10.0000,-59.7561,-31.8293
1595879224,0.5539,0.7722,0.6441,11.4634,-52.6829,-41.5244
1595879224,0.4284,0.7342,0.6243,14.8171,-41.2195,-42.1341
1595879224,0.4265,0.7468,0.6207,16.8293,-35.6098,-40.4878
1595879224,0.5021,0.7868,0.6409,12.6829,-38.2317,-37.5610
1595879224,0.5126,0.8071,0.6632,7.6829,-42.3171,-33.5366
1595879224,0.4747,0.8297,0.6697,5.9756,-41.8902,-31.2805
1595879224,0.3715,0.8712,0.6478,4.8780,-37.1951,-29.5732
1595879225,0.3553,0.9222,0.6201,2.9268,-31.6463,-28.9634
1595879225,0.3839,0.8981,0.5932,-5.4268,-41.5244,-18.4146
1595879225,0.3310,0.9248,0.5963,-5.4268,-45.1829,-19.0854
1595879225,0.3027,0.9494,0.5904,-7.9878,-48.5366,-16.7683
1595879225,0.2534,0.9542,0.5765,-13.1098,-57.5610,-15.6098
1595879225,0.2266,1.0275,0.5152,-17.9878,-74.0854,-16.0366
1595879225,0.2446,1.0464,0.4345,-25.0000,-89.4512,-14.8171
1595879225,0.2574,1.0410,0.3971,-29.0854,-97.1341,-14.0244
1595879225,0.2266,1.0349,0.3639,-30.1829,-101.8293,-13.9634
1595879225,0.2532,1.0375,0.3517,-30.0610,-105.4268,-13.5366
1595879225,0.2980,1.0214,0.3867,-34.5122,-106.6463,-13.5366
1595879225,0.2795,1.0042,0.4189,-32.5610,-97.1951,-14.3293
1595879225,0.2437,0.9890,0.4054,-32.8659,-97.6829,-14.5122
1595879225,0.2154,0.9700,0.3716,-32.9878,-102.1341,-16.2195
1595879225,0.3821,0.8831,0.3613,-34.0244,-131.7073,-21.8902
1595879225,0.4185,0.8746,0.4138,-27.4390,-135.6707,-24.2683
1595879225,0.5853,0.8196,0.4057,-41.3415,-140.4878,-33.5976
1595879225,0.6165,0.8069,0.3710,-42.9878,-131.7683,-34.5732
1595879225,0.6562,0.8032,0.3467,-42.3780,-125.8537,-35.0000
1595879225,0.6830,0.7867,0.3423,-41.7073,-122.9268,-35.9756
1595879225,0.6783,0.7815,0.3604,-40.4878,-122.3781,-38.3537
1595879225,0.7026,0.7780,0.3837,-42.4390,-121.0366,-43.5976
1595879225,0.7000,0.7670,0.3641,-48.2927,-103.4146,-51.4634
1595879225,0.7174,0.7410,0.3153,-56.0366,-98.3537,-55.1220
1595879225,0.7110,0.7129,0.2946,-58.6585,-98.5366,-57.0122
1595879225,0.7200,0.6987,0.2735,-58.9024,-99.8781,-58.9024
1595879225,0.7308,0.6867,0.2429,-58.9634,-101.8902,-59.3293
1595879225,0.7460,0.6785,0.2306,-58.3537,-104.2683,-59.4512
1595879225,0.7499,0.6716,0.2598,-58.2927,-102.1341,-62.1341
1595879225,0.7429,0.6903,0.2921,-58.3537,-98.1707,-62.6220
1595879225,0.7441,0.7151,0.3187,-59.6341,-93.9634,-63.4146
1595879225,0.7266,0.7284,0.3152,-61.5854,-90.1829,-64.3902
1595879225,0.7024,0.7271,0.3148,-62.0122,-88.2317,-64.1463
1595879225,0.7155,0.7199,0.2835,-63.4756,-87.6220,-63.4146
1595879225,0.7192,0.7106,0.2650,-64.0244,-86.5244,-62.0732
1595879225,0.7136,0.7066,0.2471,-63.4146,-84.3293,-61.1585
1595879225,0.7100,0.7035,0.2444,-62.5610,-81.7683,-59.5732
1595879225,0.7081,0.7090,0.2480,-61.8902,-79.6341,-57.9268
1595879225,0.7216,0.7236,0.2660,-60.6707,-77.1341,-56.7073
1595879225,0.7395,0.7356,0.2905,-59.3902,-73.1707,-54.8781
1595879225,0.7263,0.7363,0.3036,-58.4146,-68.3537,-52.4390
1595879225,0.6964,0.7264,0.3046,-56.3415,-63.9634,-49.6951
1595879225,0.6829,0.7103,0.3036,-54.0854,-61.2195,-46.9512
1595879225,0.6636,0.6973,0.2959,-52.5000,-60.0610,-43.8415
1595879225,0.6446,0.6896,0.2825,-50.4878,-59.6341,-40.7317
1595879225,0.6397,0.6856,0.2752,-48.1707,-60.1829,-38.0488
1595879225,0.6345,0.6782,0.2772,-46.3415,-61.5244,-35.4268
1595879225,0.6400,0.6718,0.2740,-44.4512,-62.5610,-33.4146
1595879225,0.6473,0.6745,0.2808,-41.8293,-62.6220,-31.7073
1595879225,0.6567,0.6786,0.2935,-39.0854,-61.4634,-30.0610
1595879225,0.6685,0.6861,0.3000,-36.3415,-60.1829,-28.4756
1595879225,0.6539,0.6901,0.2991,-31.4024,-57.1951,-24.5732
1595879225,0.6545,0.6877,0.3000,-28.9024,-55.4268,-22.7439
1595879225,0.6534,0.6879,0.3068,-26.7073,-54.1463,-20.3659
1595879225,0.6245,0.7052,0.3198,-19.8780,-53.5976,-14.8171
1595879225,0.6002,0.7245,0.3312,-13.6585,-53.4756,-11.0366
1595879225,0.5834,0.7333,0.3431,-9.8171,-54.6951,-10.0610
1595879225,0.5861,0.7433,0.3578,-8.9024,-55.9756,-9.3293
1595879225,0.5987,0.7404,0.3565,-9.6951,-54.9390,-9.2073
1595879225,0.5946,0.7394,0.3542,-10.9146,-50.1220,-9.2683
1595879225,0.5844,0.7438,0.3527,-10.8537,-41.4024,-9.1463
1595879225,0.5482,0.7455,0.3464,-12.1951,-20.9146,-9.0244
1595879225,0.5495,0.7508,0.3480,-12.2561,-14.2073,-8.7195
1595879225,0.5690,0.7537,0.3503,-12.0732,-11.2195,-7.6829
1595879225,0.5785,0.7551,0.3434,-11.8293,-10.9146,-6.2805
1595879225,0.5845,0.7574,0.3355,-10.6707,-12.0122,-5.0610
1595879225,0.5840,0.7595,0.3364,-8.9024,-13.8415,-4.4512
1595879225,0.5871,0.7593,0.3372,-7.6220,-15.6098,-4.4512
1595879225,0.5915,0.7603,0.3352,-6.7683,-17.1951,-4.2073
1595879225,0.5889,0.7564,0.3348,-5.8537,-18.7805,-3.7805
1595879225,0.5768,0.7567,0.3329,-4.9390,-20.2439,-3.9634
1595879225,0.5710,0.7584,0.3330,-4.0854,-21.9512,-4.7561
1595879225,0.5734,0.7554,0.3358,-3.4146,-24.0854,-5.3659
1595879225,0.5813,0.7564,0.3444,-3.4756,-25.9756,-6.0366
1595879225,0.5960,0.7606,0.3486,-3.5976,-26.8902,-6.4024
1595879225,0.6105,0.7665,0.3541,-3.6585,-26.5854,-6.5854
1595879225,0.6108,0.7717,0.3561,-3.7805,-24.8171,-6.9512
1595879225,0.6059,0.7789,0.3552,-4.1463,-22.5610,-7.5000
1595879225,0.6149,0.7830,0.3551,-4.9390,-20.4878,-8.1098
1595879225,0.6192,0.7827,0.3442,-6.3415,-18.3537,-8.4146
1595879225,0.6026,0.7858,0.3351,-7.1341,-15.9756,-8.1707
1595879225,0.5870,0.7823,0.3331,-7.6829,-14.2683,-8.6585
1595879225,0.5995,0.7869,0.3356,-10.1829,-13.1707,-9.3902
1595879225,0.6039,0.7891,0.3412,-11.4024,-12.3780,-8.5366
1595879225,0.6078,0.7903,0.3383,-12.0122,-11.4024,-7.9268
1595879225,0.6006,0.7850,0.3350,-13.1098,-9.9390,-7.4390
1595879225,0.5969,0.7856,0.3265,-13.1098,-9.7561,-7.0732
1595879225,0.5934,0.7836,0.3210,-13.1098,-10.1829,-6.7073
1595879226,0.5994,0.7872,0.3210,-13.0488,-10.6707,-6.4634
1595879226,0.6013,0.7870,0.3213,-13.3537,-11.1585,-6.4024
1595879226,0.5991,0.7889,0.3193,-13.4756,-11.1585,-5.9146
1595879226,0.6042,0.7916,0.3203,-13.1707,-10.7927,-5.3049
1595879226,0.6054,0.7908,0.3206,-12.9878,-10.6707,-4.9390
1595879226,0.6017,0.7835,0.3189,-13.2317,-10.1220,-4.7561
1595879226,0.5880,0.7799,0.3164,-12.9878,-9.1463,-4.5732
1595879226,0.5749,0.7802,0.3115,-12.0732,-8.4146,-4.2683
1595879226,0.5701,0.7786,0.3075,-11.4634,-8.7805,-3.9024
1595879226,0.5779,0.7762,0.3033,-11.1585,-9.6951,-3.6585
1595879226,0.5853,0.7712,0.2982,-11.0366,-10.4268,-3.5366
1595879226,0.5914,0.7697,0.2980,-10.6707,-10.5488,-3.5976
1595879226,0.6021,0.7725,0.2982,-10.2439,-10.0000,-3.8415
1595879226,0.5975,0.7759,0.2903,-10.0000,-8.9634,-4.6341
1595879226,0.5911,0.7775,0.2880,-9.2683,-8.0488,-5.1829
1595879226,0.5950,0.7747,0.2919,-8.5366,-8.1098,-5.3659
1595879226,0.6027,0.7702,0.2948,-8.4756,-8.9634,-5.4878
1595879226,0.6037,0.7634,0.2965,-8.2927,-9.3902,-5.5488
1595879226,0.5959,0.7647,0.3022,-6.4024,-9.0244,-5.1829
1595879226,0.5943,0.7724,0.3000,-5.7927,-9.5122,-4.8780
1595879226,0.5927,0.7764,0.2990,-5.3049,-10.3049,-4.7561
1595879226,0.5919,0.7755,0.2979,-4.5122,-10.7927,-4.6341
1595879226,0.5913,0.7756,0.2958,-3.9634,-11.0366,-4.3293
1595879226,0.5902,0.7749,0.2924,-3.2927,-11.0366,-4.0244
1595879226,0.5917,0.7726,0.2940,-2.5000,-10.8537,-3.6585
1595879226,0.5955,0.7740,0.2972,-1.7683,-10.7927,-3.3537
1595879226,0.5958,0.7758,0.3031,-1.2805,-10.6098,-2.9878
1595879226,0.5995,0.7778,0.3054,-0.6707,-10.2439,-2.7439
1595879226,0.6052,0.7831,0.3051,0.1829,-10.0000,-2.5610
1595879226,0.6047,0.7880,0.3099,0.5488,-9.3293,-2.6220
1595879226,0.6118,0.7899,0.3217,0.3049,-7.4390,-3.1707
1595879226,0.6201,0.7991,0.3264,0.0610,-5.0000,-3.4146
1595879226,0.6154,0.8042,0.3290,0.1220,-2.1341,-2.8659
1595879226,0.6011,0.7946,0.3224,-1.1585,3.0488,0.3659
1595879226,0.5901,0.7896,0.3193,-1.5854,3.2927,0.7317
1595879226,0.5848,0.7836,0.3099,-1.8902,2.8659,1.3415
1595879226,0.5782,0.7802,0.3069,-1.5244,1.9512,1.5244
1595879226,0.5797,0.7703,0.3067,-1.0976,-0.9146,0.7317
1595879226,0.5775,0.7772,0.3109,-0.4268,-4.0854,-0.2439
1595879226,0.5870,0.7911,0.3166,-0.0610,-5.4878,-1.2805
1595879226,0.5845,0.7910,0.3168,-0.1829,-5.4878,-1.1585
1595879226,0.5820,0.7841,0.3204,-0.9146,-4.6341,-1.1585
1595879226,0.5770,0.7840,0.3149,-0.9146,-3.9634,-0.9146
1595879226,0.5729,0.7833,0.3123,-1.0366,-3.6585,-0.6707
1595879226,0.5788,0.7844,0.3090,-0.9146,-3.5976,-0.7317
1595879226,0.5848,0.7868,0.3110,-0.9146,-3.7805,-1.1585
1595879226,0.5840,0.7894,0.3157,-0.6707,-3.2927,-1.5244
1595879226,0.5828,0.7909,0.3162,-0.1829,-2.6220,-2.0732
1595879226,0.5833,0.7957,0.3154,0.3659,-2.4390,-2.2561
1595879226,0.5819,0.8018,0.3152,0.6707,-2.5610,-2.6220
1595879226,0.5870,0.8026,0.3208,0.4878,-2.6829,-3.4146
1595879226,0.5921,0.8046,0.3265,0.1829,-2.6829,-3.6585
1595879226,0.5930,0.8059,0.3231,-0.0610,-2.7439,-3.2927
1595879226,0.5917,0.8023,0.3226,-0.6707,-2.8659,-3.1098
1595879226,0.5906,0.7964,0.3237,-1.2195,-2.6220,-3.1098
1595879226,0.5848,0.8027,0.3140,-1.8293,-1.4634,-3.0488
1595879226,0.5855,0.8124,0.3047,-1.7073,-2.1341,-3.0488
1595879226,0.5803,0.8120,0.3070,-1.6463,-2.8049,-3.2927
1595879226,0.5769,0.8052,0.3114,-2.3171,-3.4146,-4.0244
1595879226,0.5782,0.8017,0.3101,-2.6220,-4.2073,-4.2683
1595879226,0.5707,0.7978,0.3047,-2.8049,-5.3049,-4.1463
1595879226,0.5628,0.7907,0.3029,-2.8049,-6.5854,-4.2683
1595879226,0.5667,0.7852,0.2997,-2.8659,-8.1098,-4.5732
1595879226,0.5754,0.7820,0.3004,-2.6220,-10.1220,-4.7561
1595879226,0.5768,0.7812,0.3052,-2.0732,-10.0610,-5.1220
1595879226,0.5792,0.7819,0.3095,-1.5854,-10.0000,-5.9146
1595879226,0.5901,0.7921,0.3170,-0.7317,-9.8780,-6.2195
1595879226,0.5942,0.8168,0.3300,0.1220,-7.8659,-6.5244
1595879226,0.6003,0.8192,0.3401,-0.6707,-4.8780,-7.3780
1595879226,0.6032,0.8224,0.3423,-1.2805,-3.1707,-6.7073
1595879226,0.5990,0.8257,0.3415,-1.6463,-1.1585,-5.9146
1595879226,0.5967,0.8238,0.3363,-2.0122,0.9756,-5.2439
1595879226,0.5869,0.8155,0.3280,-2.5000,2.4390,-4.4512
1595879226,0.5712,0.8112,0.3154,-2.5610,3.2317,-3.9024
1595879226,0.5695,0.8077,0.3088,-1.9512,3.2317,-3.1707
1595879226,0.5707,0.7983,0.2979,-1.7073,2.4390,-2.5610
1595879226,0.5591,0.7896,0.2896,-1.2195,1.4634,-2.1951
1595879226,0.5458,0.7737,0.2845,0.8537,-0.8537,-1.9512
1595879226,0.5484,0.7646,0.2842,1.4024,-2.7439,-2.3171
1595879226,0.5533,0.7536,0.2820,1.8293,-4.5122,-2.5610
1595879226,0.5556,0.7488,0.2810,2.5000,-5.6707,-2.9268
1595879226,0.5585,0.7424,0.2825,3.2927,-6.4634,-3.1707
1595879227,0.5712,0.7377,0.2896,4.0854,-6.5854,-3.6585
1595879227,0.5831,0.7365,0.2917,4.6951,-6.2805,-4.2683
1595879227,0.6067,0.7535,0.3033,7.1951,-4.2073,-4.5732
1595879227,0.6202,0.7587,0.3092,7.3171,-3.7195,-4.4512
1595879227,0.6221,0.7661,0.3097,7.8659,-2.5610,-3.9024
1595879227,0.6243,0.7748,0.3072,8.4146,-1.2805,-3.1098
1595879227,0.6280,0.7823,0.3115,8.3537,0.0000,-2.5000
1595879227,0.6318,0.8023,0.3160,6.5854,5.3049,-0.2439
1595879227,0.6301,0.8110,0.3153,5.9756,6.9512,0.7927
1595879227,0.6257,0.8190,0.3123,5.3659,7.8049,1.9512
1595879227,0.6205,0.8226,0.3057,4.5732,7.9878,2.6829
1595879227,0.6113,0.8222,0.3006,3.7805,8.1098,3.1707
1595879227,0.6033,0.8257,0.2967,3.4146,7.9268,4.1463
1595879227,0.5962,0.8297,0.2943,3.1707,6.9512,4.9390
1595879227,0.5857,0.8301,0.2956,2.7439,5.7927,5.2439
1595879227,0.5797,0.8320,0.2928,2.5610,4.6341,5.3049
1595879227,0.5804,0.8263,0.2985,2.1951,3.5976,5.2439
1595879227,0.5765,0.8250,0.2982,1.7683,3.0488,5.3049
1595879227,0.5720,0.8251,0.2982,1.5854,2.8049,5.1829
1595879227,0.5648,0.8292,0.3085,1.6463,2.1951,4.8780
1595879227,0.5594,0.8311,0.3105,1.2195,1.9512,4.3293
1595879227,0.5502,0.8326,0.3107,0.9146,1.9512,4.2073
1595879227,0.5351,0.8311,0.3069,0.6707,1.8293,4.0244
1595879227,0.5301,0.8165,0.2800,-1.8293,0.8537,2.8049
1595879227,0.5314,0.8199,0.2711,-0.9756,1.1585,3.0488
1595879227,0.5382,0.8199,0.2802,-0.4268,0.9146,2.3171
1595879227,0.5458,0.8126,0.2880,-0.9146,0.6098,1.2805
1595879227,0.5473,0.8054,0.2974,-1.2195,1.1585,0.5488
1595879227,0.5413,0.8038,0.2937,-0.6707,2.2561,0.1829
1595879227,0.5403,0.8100,0.2938,0.1220,3.0488,-0.3659
1595879227,0.5492,0.8129,0.2999,0.4878,2.6829,-1.2195
1595879227,0.5536,0.8108,0.3002,-0.0610,1.7073,-2.3780
1595879227,0.5554,0.8123,0.2976,-0.2439,0.6707,-3.0488
1595879227,0.5626,0.8201,0.3021,0.1829,-0.2439,-3.7805
1595879227,0.5739,0.8246,0.3090,0.2439,-1.0976,-4.6341
1595879227,0.5892,0.8190,0.3090,-0.5488,-1.3415,-5.1829
1595879227,0.5917,0.8221,0.3059,-0.7927,-0.2439,-5.3659
1595879227,0.5888,0.8224,0.3079,-0.6098,1.5854,-5.2439
1595879227,0.5856,0.8195,0.3099,-0.9756,3.4756,-5.0000
1595879227,0.5819,0.8167,0.3121,-0.9756,3.4756,-4.3293
1595879227,0.5713,0.8097,0.3094,-1.2195,2.6220,-3.8415
1595879227,0.5714,0.8090,0.3099,-1.1585,2.0122,-3.8415
1595879227,0.5771,0.8110,0.3087,-2.0732,0.8537,-4.1463
1595879227,0.5776,0.8145,0.3088,-2.6829,0.9756,-4.3293
1595879227,0.5724,0.8160,0.3062,-2.8659,1.3415,-4.5732
1595879227,0.5674,0.8133,0.3073,-2.8659,1.7683,-4.9390
1595879227,0.5706,0.8192,0.3242,-3.2317,2.2561,-5.9146
1595879227,0.5643,0.8232,0.3257,-2.9878,2.8659,-6.5244
1595879227,0.5627,0.8315,0.3310,-2.6829,3.2317,-7.1341
1595879227,0.5650,0.8209,0.3154,-4.1463,3.4756,-6.0976
1595879227,0.5632,0.8047,0.3114,-4.7561,3.5366,-5.4878
1595879227,0.5617,0.7944,0.3088,-5.3049,3.9024,-5.1220
1595879227,0.5479,0.7889,0.3102,-4.4512,4.3293,-3.9634
1595879227,0.5477,0.7853,0.3146,-3.6585,3.4146,-3.7195
1595879227,0.5476,0.7786,0.3137,-2.0122,0.4878,-3.5976
1595879227,0.5511,0.7795,0.3167,-1.4634,-0.1829,-3.9024
1595879227,0.5517,0.7829,0.3223,-0.6707,-0.6707,-4.0244
1595879227,0.5566,0.7885,0.3311,-0.3659,-1.0366,-4.4512
1595879227,0.5652,0.7887,0.3340,-0.5488,-1.3415,-4.6951
1595879227,0.5731,0.7905,0.3372,-0.8537,-1.3415,-4.8171
1595879227,0.5647,0.7899,0.3325,-0.1829,0.7317,-5.0000
1595879227,0.5757,0.7991,0.3228,0.3049,3.2317,-4.0854
1595879227,0.5764,0.7934,0.3181,0.4268,4.8171,-4.0244
1595879227,0.5860,0.8029,0.3224,1.2195,7.5000,-3.3537
1595879227,0.5935,0.8098,0.3394,1.4634,8.3537,-1.8902
1595879227,0.5867,0.8135,0.3448,1.7073,9.2073,-0.9756
1595879227,0.5787,0.8190,0.3477,2.0122,10.4878,0.1220
1595879227,0.5703,0.8196,0.3508,2.0732,11.4024,1.0976
1595879227,0.5637,0.8211,0.3489,1.6463,11.8293,1.8902
1595879227,0.5595,0.8217,0.3540,1.0976,12.0122,2.5000
1595879227,0.5594,0.8234,0.3564,0.9756,11.8902,2.8659
1595879227,0.5614,0.8235,0.3512,0.8537,11.5854,3.1707
1595879227,0.5632,0.8256,0.3487,0.5488,11.5244,3.3537
1595879227,0.5524,0.8138,0.3343,-0.4878,13.6585,2.3171
1595879227,0.5518,0.8144,0.3380,-0.7317,13.6585,2.5000
1595879227,0.5565,0.8100,0.3323,-1.2195,13.2317,2.6829
1595879227,0.5518,0.8032,0.3295,-1.4634,12.8659,2.6220
1595879227,0.5420,0.7930,0.3328,-1.1585,12.3171,2.7439
1595879227,0.5289,0.7870,0.3395,-0.1220,10.9146,3.0488
1595879227,0.5183,0.7819,0.3359,0.9146,7.1951,3.5976
1595879228,0.5143,0.7773,0.3274,2.1341,1.4024,4.4512
1595879228,0.5505,0.7759,0.3029,6.2805,-16.8293,6.4024
1595879228,0.5566,0.7806,0.2960,7.0122,-19.0854,6.2805
1595879228,0.5742,0.7764,0.3001,6.7683,-18.2317,6.0976
1595879228,0.5765,0.7702,0.3072,5.8537,-14.7561,6.4024
1595879228,0.5650,0.7745,0.3119,6.4634,-11.0976,6.5854
1595879228,0.5598,0.7863,0.3098,8.5366,-10.6098,6.7073
1595879228,0.5715,0.8062,0.3234,12.2561,-25.0000,8.3537
1595879228,0.5859,0.8182,0.3228,13.2317,-36.0976,8.4756
1595879228,0.6146,0.8292,0.3215,14.1463,-45.4268,8.6585
1595879228,0.6458,0.8316,0.3137,14.2073,-50.3049,9.3293
1595879228,0.6511,0.8303,0.3098,14.2683,-50.9756,10.1829
1595879228,0.6437,0.8328,0.3045,15.3659,-49.2073,10.4268
1595879228,0.6388,0.8316,0.2938,16.2805,-46.8902,10.6707
1595879228,0.6346,0.8237,0.2873,15.9756,-46.4024,11.8293
1595879228,0.6354,0.8238,0.2861,16.5854,-47.5610,13.2927
1595879228,0.6523,0.8275,0.2877,17.5000,-50.1829,14.5732
1595879228,0.6662,0.8190,0.2808,17.3171,-53.0488,15.7317
1595879228,0.6642,0.8107,0.2696,17.1341,-53.5366,16.8902
1595879228,0.6541,0.8120,0.2615,18.2927,-52.3171,17.6829
1595879228,0.6458,0.8165,0.2596,19.8780,-50.4268,17.9878
1595879228,0.6552,0.8076,0.2505,20.2439,-48.7195,18.3537
1595879228,0.6650,0.8008,0.2454,20.0610,-46.7683,18.8415
1595879228,0.6750,0.7969,0.2447,20.4878,-44.5122,18.9634
1595879228,0.6830,0.7967,0.2416,21.0976,-42.0122,18.9024
1595879228,0.6959,0.7955,0.2441,21.5854,-39.2073,18.5976
1595879228,0.7087,0.7941,0.2516,21.7683,-35.3659,17.9878
1595879228,0.7382,0.7876,0.2515,21.3415,-16.7683,18.2927
1595879228,0.7287,0.7766,0.2590,21.0976,-3.5976,20.1829
1595879228,0.7260,0.7495,0.2632,21.0366,5.7317,22.7439
1595879228,0.7242,0.7288,0.2662,21.1585,8.1707,24.6951
1595879228,0.7391,0.6598,0.2616,25.1829,15.8537,32.6829
1595879228,0.7488,0.6472,0.2617,27.0732,19.2073,34.3293
1595879228,0.7878,0.6465,0.2741,30.4878,28.1707,37.0122
1595879228,0.7964,0.6350,0.2988,33.4756,41.2805,39.6341
1595879228,0.7642,0.6019,0.3022,35.9756,55.6707,42.4390
1595879228,0.7548,0.5923,0.3015,37.7439,60.4878,43.5976
1595879228,0.7696,0.5980,0.2879,41.5854,67.6220,45.6707
1595879228,0.7740,0.5947,0.2899,42.4390,71.2195,44.6951
1595879228,0.7772,0.5971,0.2933,45.0610,78.7195,45.2439
1595879228,0.7833,0.5874,0.2894,46.4634,80.2439,45.5488
1595879228,0.7375,0.5739,0.2828,52.1951,80.2439,46.2195
1595879228,0.7709,0.5722,0.2614,54.5732,74.6341,49.9390
1595879228,0.7322,0.5529,0.2574,60.4878,81.0366,53.3537
1595879228,0.7496,0.5582,0.2574,63.7195,79.3902,57.0732
1595879228,0.7531,0.5660,0.2515,65.4878,78.7195,59.9390
1595879228,0.7538,0.5700,0.2446,66.8902,76.3415,62.8659
1595879228,0.7676,0.5650,0.2345,68.3537,73.2317,65.3659
1595879228,0.7874,0.5582,0.2202,69.7561,70.8537,67.5610
1595879228,0.7979,0.5499,0.1985,71.0366,69.1463,70.0000
1595879228,0.8087,0.5270,0.1854,72.5000,69.0244,72.1951
1595879228,0.8137,0.5104,0.1826,74.6341,69.8171,73.7195
1595879228,0.8026,0.5135,0.1766,77.3781,69.7561,75.7317
1595879228,0.8148,0.5184,0.1693,80.1220,70.4878,76.8902
1595879228,0.8583,0.5444,0.1252,86.7073,70.0000,80.0000
1595879228,0.8782,0.5573,0.1149,90.8537,68.4756,81.7073
1595879228,0.8889,0.5424,0.1118,95.9756,64.5732,82.3171
1595879228,0.8259,0.6454,0.0581,103.1098,62.6220,75.6707
1595879228,0.8479,0.6642,0.0537,103.4146,58.8415,71.2805
1595879229,0.8405,0.7368,0.0665,106.4634,37.1951,61.3415
1595879229,0.8585,0.6124,-0.0273,117.1951,-22.9878,29.4512
1595879229,0.9033,0.6035,-0.0084,125.9146,-35.9146,14.9390
1595879229,0.9104,0.5768,-0.0378,126.2195,-37.8659,10.9756
1595879229,0.8669,0.5113,-0.1132,123.0488,-36.7683,2.2561
1595879229,0.8757,0.4997,-0.1771,121.6463,-34.3293,-0.4268
1595879229,0.9189,0.4955,-0.2473,119.8781,-32.5610,-4.6951
1595879229,0.9678,0.5081,-0.3065,117.9878,-31.4634,-7.5000
1595879229,1.0241,0.5181,-0.3329,116.3415,-27.3171,-9.6341
1595879229,0.9512,0.5121,-0.3304,111.1585,-4.8780,-16.5854
1595879229,0.9064,0.5127,-0.3131,109.3293,5.3659,-19.8780
1595879229,0.9039,0.5032,-0.3064,104.0854,11.8902,-22.3780
1595879229,0.9195,0.4825,-0.3303,100.8537,15.3659,-23.4756
1595879229,0.9379,0.4793,-0.3442,98.3537,21.4634,-23.2927
1595879229,0.9509,0.4818,-0.3417,97.8049,28.5366,-21.0366
1595879229,0.9258,0.4683,-0.3281,96.7683,34.2073,-19.8780
1595879229,0.9050,0.4626,-0.3161,94.6341,42.0122,-20.7317
1595879229,0.8501,0.4787,-0.3198,94.3902,54.9390,-18.4756
1595879229,0.8947,0.4921,-0.2919,93.7195,47.6829,-17.2561
1595879229,0.9238,0.4827,-0.3229,92.4390,44.7561,-14.1463
1595879229,0.8962,0.4806,-0.3112,93.3537,50.6098,-15.6707
1595879229,0.8751,0.5044,-0.2866,96.9512,73.2317,-16.5244
1595879229,0.8500,0.5141,-0.2903,97.8659,79.8171,-16.2805
1595879229,0.8345,0.5267,-0.2953,99.3293,84.6341,-15.9756
1595879229,0.8294,0.5374,-0.3049,100.6707,85.9146,-16.4634
1595879229,0.8250,0.5518,-0.3136,101.9512,85.0000,-15.9756
1595879229,0.8329,0.5714,-0.3027,103.5366,81.8293,-15.5488
1595879229,0.8749,0.6321,-0.2541,108.9024,65.3049,-16.0366
1595879229,0.9089,0.6445,-0.2327,109.7561,62.2561,-16.0976
1595879229,0.9256,0.6498,-0.2081,108.9634,61.8293,-16.5854
1595879229,0.8693,0.6303,-0.2021,107.4390,66.5854,-17.8049
1595879229,0.7883,0.5953,-0.2069,105.1829,75.7317,-19.6341
1595879229,0.7574,0.5998,-0.2123,104.7561,80.1829,-20.4878
1595879229,0.7889,0.6218,-0.2117,105.7317,77.5610,-20.0000
1595879229,0.8211,0.6217,-0.2120,104.3902,74.2073,-19.6341
1595879229,0.8129,0.6113,-0.2612,102.9878,81.6463,-19.7561
1595879229,0.8288,0.6204,-0.2790,102.8049,84.5122,-22.0122
1595879229,0.8267,0.6230,-0.2861,102.1341,89.6951,-23.2927
1595879229,0.7433,0.6772,-0.2976,99.5122,106.5244,-25.7317
1595879229,0.7216,0.6827,-0.2744,95.9146,107.1951,-27.6829
1595879229,0.6947,0.6945,-0.2517,93.8415,105.0000,-30.1220
1595879229,0.6683,0.7143,-0.2410,92.2561,100.3659,-31.2195
1595879229,0.6562,0.7312,-0.2501,89.6951,93.6585,-31.2805
1595879229,0.6553,0.7448,-0.2667,85.8537,85.5488,-31.8293
1595879229,0.6553,0.7603,-0.2913,81.7683,77.1951,-32.3171
1595879229,0.6443,0.7806,-0.3104,77.4390,69.0244,-32.5610
1595879229,0.6447,0.8016,-0.3403,72.6829,62.3171,-32.9268
1595879229,0.6415,0.8167,-0.3864,68.2317,58.3537,-34.0244
1595879229,0.6269,0.8368,-0.4133,64.8171,55.1829,-34.8780
1595879229,0.6170,0.8549,-0.4011,61.6463,50.5488,-35.7317
1595879229,0.6129,0.8607,-0.3606,57.4390,45.3049,-37.4390
1595879229,0.6117,0.8695,-0.3032,53.2317,40.6707,-39.2073
1595879229,0.6094,0.8901,-0.2419,49.8171,36.3415,-40.8537
1595879229,0.6058,0.9119,-0.1993,47.1951,31.8902,-41.9512
1595879229,0.6086,0.9213,-0.1547,44.3293,28.1707,-42.0732
1595879229,0.6166,0.9240,-0.1136,40.0610,26.6463,-42.1341
1595879229,0.6204,0.9205,-0.1108,34.2683,24.8780,-41.8293
1595879229,0.6125,0.9215,-0.1329,28.5366,20.4268,-39.5732
1595879229,0.6335,0.9186,-0.1507,23.5366,11.3415,-37.2561
1595879229,0.6958,0.9104,-0.1575,19.3902,-0.3659,-36.1585
1595879229,0.7374,0.8817,-0.1550,16.7073,-10.4878,-35.3049
1595879229,0.7700,0.8055,-0.1037,20.6707,-20.7317,-33.7805
1595879229,0.7779,0.7975,-0.0657,24.5732,-22.6220,-33.5366
1595879229,0.8228,0.8035,0.0495,32.1951,-25.9146,-30.9756
1595879229,0.8417,0.8226,0.0870,34.5732,-26.1585,-28.5366
1595879229,0.8518,0.8310,0.0923,35.7927,-25.0000,-25.1220
1595879229,0.8424,0.7480,0.1127,39.5732,-3.9024,-10.1220
1595879229,0.7680,0.7204,0.1067,38.4756,11.4634,-6.2805
1595879229,0.7845,0.6929,0.0819,34.5122,18.8415,-1.3415
1595879229,0.7850,0.6865,0.0738,32.8659,21.8293,0.2439
1595879230,0.7642,0.6867,0.0560,31.4024,27.0732,1.1585
1595879230,0.7520,0.6894,0.0457,29.9390,32.4390,1.8293
1595879230,0.7554,0.6996,0.0382,28.4146,36.6463,2.3780
1595879230,0.7434,0.7617,0.0187,25.0610,46.3415,2.9878
1595879230,0.7393,0.7863,0.0044,24.5122,49.0854,2.9268
1595879230,0.7513,0.8389,-0.0070,25.1829,48.9634,0.8537
1595879230,0.7435,0.8566,0.0031,25.3659,48.2317,0.6098
1595879230,0.7403,0.8317,0.0176,25.7317,47.1951,-0.9146
1595879230,0.7267,0.8095,0.0128,26.4634,46.5854,-1.0366
1595879230,0.7356,0.7810,0.0064,27.5610,44.2073,-0.0610
1595879230,0.7261,0.7106,0.0155,27.2561,34.6951,4.0854
1595879230,0.7119,0.6779,0.0116,26.5854,31.3415,6.1585
1595879230,0.7156,0.6245,-0.0219,24.0244,26.5244,9.3293
1595879230,0.7245,0.6125,-0.0291,22.9878,23.5976,11.0976
1595879230,0.7194,0.6060,-0.0350,22.4390,21.8902,12.3171
1595879230,0.7471,0.5520,-0.1124,18.1098,17.5610,14.1463
1595879230,0.7775,0.5411,-0.1255,18.2317,15.3049,15.1829
1595879230,0.7446,0.5295,-0.1215,17.3780,10.7927,19.3902
1595879230,0.7648,0.5369,-0.1115,17.0732,7.3780,19.5732
1595879230,0.7935,0.5381,-0.1598,16.8293,5.2439,21.4024
1595879230,0.8032,0.5489,-0.1934,16.8902,7.1951,23.0488
1595879230,0.8167,0.5561,-0.2122,17.5000,7.6829,23.5976
1595879230,0.8443,0.5630,-0.2130,18.1707,7.0732,23.9634
1595879230,0.8619,0.5751,-0.2104,19.4512,8.2317,25.1829
1595879230,0.8588,0.5753,-0.2070,20.6098,11.5244,27.2561
1595879230,0.8544,0.5637,-0.2031,21.4024,15.0000,29.2073
1595879230,0.8560,0.5604,-0.1860,21.8902,17.3780,31.0976
1595879230,0.8700,0.5581,-0.1734,21.8902,19.2073,32.5610
1595879230,0.8640,0.5538,-0.1734,21.0976,22.6829,33.7805
1595879230,0.8229,0.5589,-0.1747,20.8537,25.7927,35.5488
1595879230,0.7865,0.5531,-0.1707,21.4024,23.9634,37.3780
1595879230,0.7918,0.5668,-0.1500,22.0732,15.6098,38.2927
1595879230,0.8389,0.5814,-0.1110,22.9878,4.6341,39.6341
1595879230,0.8890,0.5574,-0.1494,21.9512,-3.5366,40.6707
1595879230,0.9222,0.5593,-0.1552,21.6463,-5.1220,42.9268
1595879230,0.9470,0.5620,-0.1483,22.3171,-2.5610,45.2439
1595879230,0.9427,0.5488,-0.1566,21.7683,5.8537,44.3293
1595879230,0.9223,0.5540,-0.1437,21.7683,17.0122,44.6951
1595879230,0.8888,0.5590,-0.1106,23.1098,25.7317,45.5488
1595879230,0.8586,0.5563,-0.0843,22.1341,33.4146,44.8780
1595879230,0.8610,0.5667,-0.0703,20.8537,39.3293,42.8049
1595879230,0.9033,0.5816,-0.0698,20.3659,42.0122,39.8171
1595879230,0.9489,0.5974,-0.0667,19.3293,41.1585,35.7927
1595879230,0.9710,0.6180,-0.0663,17.5000,38.2317,32.1341
1595879230,0.9797,0.6475,-0.0727,16.3415,35.0610,28.1098
1595879230,0.9933,0.6768,-0.0818,15.4268,32.6829,22.9268
1595879230,1.0120,0.7130,-0.0936,14.0244,30.3049,17.4390
1595879230,1.0443,0.7512,-0.1063,12.5000,28.3537,12.1951
1595879230,1.0722,0.7910,-0.1194,11.3415,27.9878,7.3171
1595879230,1.0731,0.8146,-0.1296,10.4878,29.1463,3.0488
1595879230,1.0508,0.8183,-0.1252,10.7317,30.3049,0.3049
1595879230,0.9913,0.8046,-0.1006,12.6829,29.0244,-0.3659
1595879230,0.9260,0.7702,-0.0733,16.2805,24.6341,0.2439
1595879230,0.8748,0.7259,-0.0469,20.9146,17.7439,1.2195
1595879230,0.8510,0.6852,-0.0225,26.2805,9.0854,3.0488
1595879230,0.8414,0.6584,-0.0192,31.7073,1.8293,5.4268
1595879230,0.8340,0.6502,-0.0187,37.0122,-2.4390,7.1951
1595879230,0.8535,0.6352,-0.0099,41.4634,-4.1463,7.6829
1595879230,0.8740,0.6372,-0.0055,44.2073,-3.8415,8.4756
1595879230,0.8658,0.6793,-0.0206,46.2805,-0.4878,10.6707
1595879230,0.8453,0.7220,-0.0513,47.5610,6.5244,11.2805
1595879230,0.8110,0.7423,-0.0845,47.6220,14.0244,10.7317
1595879230,0.7777,0.7427,-0.1143,46.7683,20.6707,10.8537
1595879230,0.7611,0.7221,-0.1348,45.6707,26.8902,9.6341
1595879230,0.7507,0.6990,-0.1380,44.1463,32.0122,8.5976
1595879230,0.7469,0.6730,-0.1409,42.9268,33.9024,8.6585
1595879230,0.7443,0.6418,-0.1427,42.6220,31.7073,8.5976
1595879230,0.7674,0.6169,-0.1287,42.5610,26.9512,7.9878
1595879230,0.7922,0.6234,-0.1033,42.1951,23.0488,7.1341
1595879230,0.7977,0.6543,-0.1021,41.5854,21.6463,7.1341
1595879230,0.7983,0.6528,-0.1005,39.8171,22.8049,7.1341
1595879230,0.7845,0.6234,-0.0973,36.6463,24.2683,7.1951
1595879230,0.7670,0.5971,-0.1107,33.4756,25.4878,7.5610
1595879230,0.7526,0.5751,-0.1381,30.7317,26.7683,7.9268
1595879230,0.7462,0.5458,-0.1608,28.5976,26.9512,8.0488
1595879230,0.7535,0.5256,-0.1768,26.8902,25.0000,7.8659
1595879230,0.7583,0.5097,-0.1833,25.4268,22.0732,7.7439
1595879230,0.7671,0.4944,-0.1846,24.2073,19.8171,7.0122
1595879230,0.7811,0.4900,-0.1811,23.0488,19.5732,5.7927
1595879230,0.8008,0.4901,-0.1725,21.8902,20.1829,4.6341
1595879230,0.8214,0.4846,-0.1720,20.6707,21.8293,2.9268
1595879230,0.8519,0.4750,-0.1650,19.1463,23.6585,0.3049
1595879230,0.8661,0.4750,-0.1581,17.6220,25.0000,-1.7073
1595879230,0.8670,0.4755,-0.1501,17.0732,26.4634,-3.1098
1595879230,0.8516,0.4771,-0.1508,16.2805,27.8659,-4.2073
1595879230,0.8276,0.4778,-0.1545,15.3659,30.5488,-5.3049
1595879230,0.8186,0.4717,-0.1508,14.7561,35.3659,-7.0732
1595879230,0.8306,0.4654,-0.1430,14.0244,40.9756,-8.1098
1595879230,0.8431,0.4599,-0.1262,13.7195,46.1585,-7.9878
1595879230,0.8528,0.4501,-0.1174,13.8415,49.8781,-7.3780
1595879230,0.8423,0.4424,-0.1119,13.9024,52.0122,-7.4390
1595879230,0.8625,0.4454,-0.0993,14.0854,51.2195,-7.1951
1595879230,0.8824,0.4519,-0.0713,14.0854,49.0854,-7.6220
1595879230,0.8804,0.4697,-0.0640,13.9634,48.1707,-7.7439
1595879230,0.9185,0.4814,-0.0687,13.6585,50.6707,-8.0488
1595879230,0.9008,0.4965,-0.0724,12.9878,54.0244,-9.8171
1595879230,0.8906,0.4977,-0.0785,12.6220,57.0122,-10.6098
1595879230,0.8825,0.5003,-0.0901,11.7073,59.5122,-12.8659
1595879230,0.8627,0.5169,-0.0931,11.1585,61.7683,-13.7805
1595879230,0.8619,0.5336,-0.0828,10.7317,63.3537,-14.9390
1595879230,0.8704,0.5447,-0.0644,8.7195,63.6585,-16.0366
1595879230,0.8840,0.5510,-0.0398,6.2805,60.9146,-16.8902
1595879230,0.8953,0.5557,-0.0028,4.6341,54.5122,-17.3780
1595879230,0.8998,0.5576,0.0276,2.7439,46.3415,-17.3171
1595879230,0.8782,0.5655,0.0396,0.7927,39.3293,-17.0732
1595879231,0.8742,0.5739,0.0547,-0.6098,33.1098,-16.3415
1595879231,0.8710,0.5786,0.0587,-2.8659,27.0732,-16.1585
1595879231,0.8601,0.5767,0.0530,-5.3049,22.6220,-16.1585
1595879231,0.8591,0.5694,0.0356,-7.6829,20.0610,-16.7073
1595879231,0.8522,0.5671,0.0128,-9.6341,17.6829,-17.9268
1595879231,0.8711,0.5712,0.0041,-10.3049,14.9390,-20.0000
1595879231,0.8936,0.5753,0.0149,-10.5488,12.6829,-23.1098
1595879231,0.8887,0.5714,0.0381,-10.6098,11.3415,-25.9756
1595879231,0.8631,0.5723,0.0529,-10.2439,12.1951,-28.9024
1595879231,0.8472,0.5740,0.0680,-9.2683,12.7439,-31.6463
1595879231,0.8369,0.5740,0.0901,-8.7805,11.6463,-33.9634
1595879231,0.8239,0.5732,0.1074,-8.4756,10.4268,-36.7073
1595879231,0.8221,0.5743,0.1103,-7.5000,9.3293,-39.5732
1595879231,0.8181,0.5942,0.1188,-5.6098,5.0000,-42.1341
1595879231,0.8007,0.6186,0.1210,-3.6585,-2.8049,-44.0244
1595879231,0.7950,0.6366,0.1155,-2.1341,-10.0610,-46.4634
1595879231,0.7868,0.6658,0.1260,-0.6707,-14.8171,-49.8171
1595879231,0.7789,0.6862,0.1382,0.7317,-16.8902,-53.1707
1595879231,0.7602,0.7010,0.1509,1.4634,-14.6951,-56.8902
1595879231,0.7336,0.7114,0.1504,2.5000,-9.8171,-59.8171
1595879231,0.7115,0.7150,0.1385,4.0244,-3.2317,-62.0122
1595879231,0.6817,0.7180,0.1414,5.1829,3.1707,-63.2317
1595879231,0.6450,0.7072,0.1510,5.3049,9.2073,-64.0244
1595879231,0.6112,0.6970,0.1649,5.0000,13.5366,-65.0610
1595879231,0.5970,0.7057,0.1721,5.4878,14.2683,-65.2439
1595879231,0.6004,0.7289,0.1755,6.5244,12.4390,-64.2073
1595879231,0.5900,0.7465,0.1713,6.9512,10.3049,-62.9268
1595879231,0.5809,0.7543,0.1722,7.1341,10.6098,-61.8902
1595879231,0.5704,0.7573,0.1683,6.7683,14.7561,-61.0366
1595879231,0.5496,0.7643,0.1547,7.5000,21.0366,-60.2439
1595879231,0.5303,0.7773,0.1394,8.8415,28.0488,-59.3902
1595879231,0.5363,0.7877,0.1461,8.9634,33.8415,-58.5366
1595879231,0.5435,0.8069,0.1616,8.2317,37.0732,-58.1098
1595879231,0.5403,0.8280,0.1628,7.1951,38.7195,-57.4390
1595879231,0.5175,0.8486,0.1689,6.7073,38.5976,-57.1341
1595879231,0.4898,0.8730,0.1624,6.2195,35.1220,-56.4634
1595879231,0.4875,0.8942,0.1544,5.7317,29.5732,-55.3659
1595879231,0.4923,0.9147,0.1395,5.4878,23.1098,-54.6951
1595879231,0.4823,0.9370,0.1075,5.7927,16.9512,-53.5366
1595879231,0.4954,0.9564,0.0902,6.2805,11.6463,-52.5000
1595879231,0.5362,0.9644,0.0925,5.7317,7.8049,-52.1341
1595879231,0.5489,0.9745,0.1031,5.0610,7.1951,-51.8293
1595879231,0.5518,0.9797,0.1109,4.5732,9.8171,-51.0976
1595879231,0.5641,0.9887,0.1054,3.7195,14.6951,-50.3049
1595879231,0.5460,1.0001,0.1019,3.1707,20.6098,-49.2073
1595879231,0.5063,1.0015,0.0941,2.5000,26.7683,-48.1707
1595879231,0.4845,0.9978,0.0834,1.4024,31.2195,-47.4390
1595879231,0.4766,0.9869,0.0815,0.5488,32.1951,-46.2195
1595879231,0.4769,0.9852,0.0801,-0.7317,31.7683,-44.6341
1595879231,0.4885,0.9891,0.0900,-0.2439,31.2805,-43.2927
1595879231,0.4982,0.9913,0.0923,0.3659,31.9512,-42.5610
1595879231,0.5019,1.0026,0.0887,1.4024,34.4512,-41.6463
1595879231,0.4762,1.0015,0.0905,2.7439,36.8293,-40.1829
1595879231,0.4357,0.9927,0.0768,2.9268,38.4146,-38.6585
1595879231,0.4047,0.9803,0.0660,3.4146,38.1707,-37.5000
1595879231,0.3830,0.9636,0.0547,4.1463,35.4878,-36.4634
1595879231,0.3967,0.9610,0.0545,6.0366,29.9390,-35.4878
1595879231,0.4233,0.9701,0.0723,8.1098,22.6220,-34.6341
1595879231,0.4324,0.9804,0.0859,9.0244,15.5488,-33.1098
1595879231,0.4377,0.9929,0.0975,9.4512,10.3049,-31.6463
1595879231,0.4318,0.9946,0.1152,9.4512,5.9756,-30.2439
1595879231,0.4176,0.9882,0.1164,8.5366,2.3171,-28.7805
1595879231,0.4222,0.9821,0.1049,7.6220,-0.9756,-27.3780
1595879231,0.4367,0.9752,0.1002,7.0732,-4.3293,-25.7317
1595879231,0.4451,0.9709,0.0980,6.7073,-7.5610,-23.8415
1595879231,0.4507,0.9619,0.1055,6.4024,-10.9146,-22.5610
1595879231,0.4351,0.9571,0.1132,5.9146,-13.2927,-21.5854
1595879231,0.4296,0.9594,0.1176,6.3415,-14.3902,-21.0976
1595879231,0.4316,0.9615,0.1232,6.4024,-14.8171,-21.1585
1595879231,0.4340,0.9574,0.1301,5.9756,-13.9634,-21.1585
1595879231,0.4500,0.9555,0.1255,5.5488,-12.3171,-21.0976
1595879231,0.4591,0.9593,0.1241,5.4268,-10.2439,-20.8537
1595879231,0.4761,0.9605,0.0995,5.3049,-4.8171,-21.2805
1595879231,0.4491,0.9780,0.1041,6.8293,-2.0122,-21.0366
1595879231,0.4156,0.9728,0.1169,7.2561,-0.0610,-21.0976
1595879231,0.4037,0.9629,0.1176,5.8537,2.7439,-21.5244
1595879231,0.4383,0.9704,0.1159,5.1829,5.5488,-20.6098
1595879231,0.4544,0.9774,0.1229,5.1220,7.5000,-18.7195
1595879231,0.4266,0.9698,0.1288,4.3293,8.0488,-17.0732
1595879231,0.4080,0.9567,0.1351,3.4756,7.8659,-16.0976
1595879231,0.4152,0.9525,0.1344,3.1098,6.8902,-15.5488
1595879231,0.4175,0.9548,0.1428,3.1707,5.5488,-15.0000
1595879231,0.4124,0.9533,0.1544,3.4146,4.5122,-14.2683
1595879231,0.4121,0.9501,0.1606,3.0488,3.9024,-13.5366
1595879231,0.4193,0.9547,0.1644,2.8049,3.9024,-12.5000
1595879231,0.4083,0.9565,0.1655,2.5000,3.8415,-11.4634
1595879231,0.3802,0.9408,0.1397,1.4634,3.5366,-10.4268
1595879231,0.3759,0.9323,0.1000,1.8293,2.1951,-9.5122
1595879231,0.4037,0.9458,0.1031,2.2561,-0.7927,-8.7805
1595879231,0.4316,0.9545,0.1157,1.0976,-2.8049,-8.3537
1595879231,0.4330,0.9454,0.1467,0.0610,-0.5488,-9.0244
1595879231,0.4185,0.9614,0.1711,-1.1585,4.7561,-9.5122
1595879231,0.4161,0.9557,0.1590,-2.4390,12.0732,-9.6341
1595879231,0.3912,0.9477,0.1530,-3.7805,19.4512,-10.3049
1595879231,0.3645,0.9520,0.1351,-4.0854,24.1463,-10.3659
1595879231,0.3872,0.9634,0.1211,-3.9634,23.9024,-10.4268
1595879231,0.3990,0.9708,0.1165,-3.8415,20.9146,-10.7317
1595879231,0.3670,0.9807,0.1111,-4.0244,18.1707,-11.0976
1595879231,0.3521,1.0086,0.1128,-2.2561,14.6341,-10.6098
1595879231,0.3690,1.0367,0.1285,-1.7683,7.8659,-9.5732
1595879232,0.4246,1.0693,0.1339,-3.5976,-0.9756,-7.8659
1595879232,0.4104,1.0678,0.1240,-4.3902,-10.9146,-4.2683
1595879232,0.3612,1.0541,0.1313,-6.7683,-18.1098,-1.0976
1595879232,0.3561,1.0518,0.1477,-8.6585,-20.9146,1.0366
1595879232,0.3777,1.0773,0.1218,-10.3659,-22.0122,3.4756
1595879232,0.3442,1.1116,0.0796,-11.0366,-22.8049,5.9756
1595879232,0.2446,1.1379,0.0277,-12.1341,-25.2439,8.5976
1595879232,0.1577,1.1706,0.0104,-12.3780,-32.3780,11.5244
1595879232,0.1547,1.2043,-0.0173,-12.6220,-50.4878,14.3293
1595879232,0.1788,1.1980,-0.0419,-14.5122,-76.7683,19.0854
1595879232,0.1652,1.1929,-0.0698,-14.5732,-99.5732,21.7073
1595879232,0.1362,1.2001,-0.0979,-10.0610,-113.9634,25.5488
1595879232,0.1548,1.1912,-0.1097,-5.7927,-127.0732,32.5610
1595879232,0.2328,1.1818,-0.0887,-2.9268,-141.2195,36.9512
1595879232,0.2410,1.1449,-0.0737,0.3049,-150.0610,37.6829
1595879232,0.1122,1.0652,-0.1116,2.8659,-153.4146,37.0732
1595879232,0.0291,1.0184,-0.1458,7.5000,-163.6585,35.7317
1595879232,0.0747,0.9971,-0.1321,10.2439,-186.5854,34.5732
1595879232,0.1709,0.9714,-0.0840,8.9634,-212.5000,30.8537
1595879232,0.1765,0.9388,-0.0406,6.4634,-228.7805,24.4512
1595879232,0.1172,0.8967,-0.0355,5.4878,-235.9146,15.7317
1595879232,0.1018,0.8740,-0.0244,6.2805,-244.0244,4.8171
1595879232,0.1315,0.8552,-0.0242,5.1220,-259.0244,-5.9146
1595879232,0.1721,0.8346,-0.0505,1.5854,-274.2683,-16.5854
1595879232,0.2047,0.8114,-0.1398,-2.4390,-284.8171,-26.8293
1595879232,0.2562,0.7819,-0.2253,-6.8902,-291.3415,-34.9390
1595879232,0.3497,0.7737,-0.2949,-12.0122,-293.8415,-41.2195
1595879232,0.4836,0.7640,-0.3272,-19.1463,-290.3659,-44.9390
1595879232,0.5591,0.7460,-0.3096,-28.7805,-278.5976,-48.4756
1595879232,0.5923,0.7400,-0.2604,-36.9512,-259.0854,-51.4634
1595879232,0.6108,0.7481,-0.2148,-43.6585,-233.9025,-53.2317
1595879232,0.5941,0.7563,-0.2253,-48.5366,-210.0000,-53.4146
1595879232,0.5438,0.7536,-0.3096,-51.9512,-192.7439,-51.5854
1595879232,0.5443,0.7729,-0.3906,-51.0366,-186.4025,-48.9024
1595879232,0.5679,0.8106,-0.4135,-48.7805,-189.8171,-43.1707
1595879232,0.5859,0.8325,-0.3739,-48.4146,-197.4390,-36.9512
1595879232,0.6112,0.8228,-0.3340,-50.3049,-202.0732,-32.4390
1595879232,0.6508,0.8257,-0.3221,-49.7561,-200.6707,-29.6341
1595879232,0.6931,0.8328,-0.3414,-45.7927,-194.4512,-23.9024
1595879232,0.6957,0.8315,-0.4100,-39.9390,-184.2073,-17.3171
1595879232,0.6601,0.8559,-0.5216,-30.0000,-174.6951,-10.5488
1595879232,0.7009,0.9308,-0.5864,-18.4756,-167.8049,-2.4390
1595879232,0.7349,0.9268,-0.6690,-8.3537,-164.1463,3.7195
1595879232,0.7312,0.9237,-0.6513,-2.5000,-154.5732,5.1220
1595879232,0.7320,0.9479,-0.6080,7.0122,-139.7561,8.2317
1595879232,0.7003,0.9457,-0.5612,15.4268,-122.7439,13.4756
1595879232,0.4999,0.9471,-0.5510,22.3171,-108.2317,18.2927
1595879232,0.4057,0.9617,-0.5383,26.8293,-94.5732,20.7927
1595879232,0.4157,0.9759,-0.5054,29.5122,-86.0976,19.1463
1595879232,0.3926,0.9640,-0.4579,32.9268,-83.7195,19.0244
1595879232,0.3569,0.9514,-0.4244,35.6707,-83.0488,21.0366
1595879232,0.3268,0.9598,-0.3821,38.4756,-82.6829,24.2683
1595879232,0.2863,0.9686,-0.3607,41.0366,-84.5732,28.0488
1595879232,0.2654,0.9830,-0.3755,43.3537,-90.1220,31.4634
1595879232,0.2490,0.9832,-0.3771,44.6951,-97.0122,34.1463
1595879232,0.2080,0.9877,-0.3862,44.6341,-99.8781,33.7805
1595879232,0.1863,1.0084,-0.3456,44.7561,-96.5244,31.2805
1595879232,0.2449,1.0072,-0.3141,44.2073,-91.9512,29.2683
1595879232,0.4131,0.9810,-0.3063,43.2317,-89.4512,29.5732
1595879232,0.5201,0.9438,-0.3035,42.1341,-83.7805,31.8293
1595879232,0.4857,0.9310,-0.3424,42.8659,-70.4878,34.7561
1595879232,0.4392,0.9310,-0.3662,45.4268,-55.0610,36.0366
1595879232,0.4554,0.9180,-0.3582,46.8902,-46.0366,33.8415
1595879232,0.4545,0.9168,-0.3378,48.3537,-43.4146,30.5488
1595879232,0.3820,0.9030,-0.3550,50.5488,-40.6707,27.0122
1595879233,0.2296,0.8920,-0.3656,51.7683,-36.4634,22.6220
1595879233,0.1181,0.8928,-0.3825,52.5000,-37.6829,18.1098
1595879233,0.2453,0.8724,-0.3770,46.3415,-50.4878,1.7683
1595879233,0.2186,0.8613,-0.5314,43.7195,3.1707,-6.8902
1595879233,0.2142,0.8598,-0.5433,45.6098,1.5854,-7.2561
1595879233,0.2982,0.8693,-0.4803,49.9390,-11.0976,-10.4268
1595879233,0.2095,0.9009,-0.5638,40.7317,42.5610,-20.0610
1595879233,0.2697,0.8774,-0.4681,23.6585,42.0122,-20.7317
1595879233,0.2280,0.8505,-0.4243,19.0854,30.5488,-16.7683
1595879233,0.2462,0.8346,-0.4791,13.2927,28.2927,-15.4268
1595879233,0.2551,0.8284,-0.5251,10.6707,26.2195,-15.3049
1595879233,0.2659,0.8264,-0.5701,9.0244,25.4268,-15.3049
1595879233,0.2943,0.8239,-0.6172,9.3293,27.1341,-15.7317
1595879233,0.3791,0.8319,-0.6934,11.8902,45.6098,-16.5244
1595879233,0.1994,0.8488,-0.6905,20.9146,157.9878,-22.5610
1595879233,0.1357,0.8460,-0.6971,23.9024,163.1098,-19.6951
1595879233,0.1666,0.8328,-0.7009,25.4268,144.3902,-16.1585
1595879233,0.2242,0.8308,-0.6746,27.3780,111.9512,-13.5366
1595879233,0.5169,0.7877,-0.7759,31.2805,46.0976,-3.9024
1595879233,0.3391,0.7258,-0.7891,37.9268,84.8171,1.3415
1595879233,0.3325,0.7271,-0.7565,40.4268,93.2927,0.6707
1595879233,0.4819,0.7150,-0.6487,41.8902,97.1341,1.2805
1595879233,0.5233,0.7057,-0.6260,41.0366,101.6463,2.6829
1595879233,0.5084,0.6870,-0.6538,39.0244,112.5000,5.3049
1595879233,0.5226,0.6829,-0.7049,37.5000,126.0366,6.4024
1595879233,0.5455,0.7126,-0.6889,36.7073,137.9268,8.2317
1595879233,0.5574,0.7358,-0.6597,35.8537,147.4390,11.2195
1595879233,0.7748,0.7890,-0.6847,32.6220,157.7439,11.4024
1595879233,0.9219,0.8577,-0.5865,34.1463,169.7561,18.7195
1595879233,0.6479,0.6975,-0.5109,37.8659,183.6585,30.8537
1595879233,0.1213,0.7754,-0.2815,31.0366,185.1219,26.4024
1595879233,0.6984,0.7783,-0.3467,17.0732,106.9512,21.2805
1595879233,0.7640,0.8712,-0.3881,13.1707,125.9146,22.8659
1595879233,0.6626,0.9167,-0.3938,11.2195,152.8659,24.3293
1595879233,0.5546,0.9070,-0.3427,11.2805,159.3293,29.3293
1595879233,0.5494,0.8667,-0.3040,8.4146,144.6951,35.2439
1595879233,0.6287,0.8516,-0.2603,3.5976,117.5610,39.8780
1595879233,0.6672,0.8251,-0.2490,-2.0732,90.4268,42.6829
1595879233,0.6629,0.7939,-0.2786,-7.6829,76.1585,42.6829
1595879233,0.6936,0.7872,-0.3035,-13.6585,73.1098,41.7683
1595879233,0.6836,0.8013,-0.2966,-20.1829,79.0244,39.9390
1595879233,0.6430,0.8176,-0.2756,-25.4268,90.1829,38.9634
1595879233,0.6202,0.8220,-0.2377,-29.5732,99.4512,39.1463
1595879233,0.6094,0.7932,-0.1483,-34.3293,100.6707,40.3659
1595879233,0.5898,0.7190,-0.0698,-40.1220,95.0610,39.8780
1595879233,0.5943,0.6929,-0.0162,-47.1341,87.2561,37.0732
1595879233,0.6801,0.7139,-0.0051,-53.7805,79.0854,36.0366
1595879233,0.7427,0.7147,-0.0161,-61.7073,72.2561,35.7927
1595879233,0.7072,0.6973,-0.0765,-70.7317,67.5000,34.0854
1595879233,0.6204,0.6739,-0.1688,-83.7805,56.1585,30.2439
1595879233,0.6912,0.6474,-0.1881,-87.7439,40.7927,28.9024
1595879233,0.7281,0.6202,-0.1974,-91.0976,28.1707,28.4756
1595879233,0.7313,0.6115,-0.1841,-92.3781,22.1341,27.5610
1595879233,0.7971,0.6343,-0.1727,-92.1951,20.3659,25.5488
1595879233,0.8699,0.6649,-0.1685,-92.3781,21.5244,23.5976
1595879233,0.8532,0.6611,-0.1431,-92.7439,27.6220,20.6098
1595879233,0.7949,0.6440,-0.0830,-93.5976,37.5000,14.2683
1595879233,0.7375,0.6524,-0.0661,-96.5854,45.5488,7.1951
1595879233,0.7029,0.6652,-0.0856,-98.8415,46.8293,2.9268
1595879233,0.7383,0.6557,-0.1062,-100.4878,37.3171,0.0610
1595879233,0.7889,0.5944,-0.1455,-106.5854,14.5732,-5.8537
1595879233,0.7993,0.5716,-0.1502,-108.5976,14.5732,-9.6341
1595879233,0.8191,0.5681,-0.1476,-108.5366,20.3659,-12.4390
1595879233,0.8284,0.5569,-0.1538,-107.2561,29.3902,-15.0000
1595879233,0.8018,0.5242,-0.1552,-103.5976,37.1341,-18.6585
1595879233,0.7736,0.5119,-0.1531,-99.2683,40.7317,-21.8293
1595879233,0.7805,0.5159,-0.1404,-94.3902,37.5610,-23.1707
1595879233,0.8441,0.4918,-0.1597,-88.9634,26.7683,-28.2317
1595879233,0.8290,0.5060,-0.1562,-83.5366,27.9878,-29.5732
1595879233,0.8207,0.5165,-0.1266,-77.6220,30.3049,-31.3415
1595879233,0.8152,0.5161,-0.0892,-73.4756,31.4024,-34.1463
1595879233,0.8199,0.5220,-0.0727,-69.8171,32.3171,-35.4268
1595879233,0.8264,0.5226,-0.0537,-65.2439,32.6829,-35.9756
1595879233,0.7885,0.5402,-0.0599,-60.4268,32.0122,-36.4024
1595879233,0.7432,0.5591,-0.0645,-53.5976,29.2073,-36.5854
1595879233,0.7057,0.5624,-0.0813,-45.4878,20.5488,-37.6220
1595879233,0.7001,0.5727,-0.0891,-37.4390,7.0122,-37.7439
1595879233,0.7369,0.5978,-0.0610,-31.0976,-6.6463,-36.9512
1595879233,0.7614,0.6163,-0.0244,-26.8902,-14.7561,-37.2561
1595879233,0.7708,0.6384,0.0049,-23.5366,-15.6707,-38.5366
1595879233,0.7880,0.6597,0.0300,-20.2439,-10.4878,-39.0244
1595879233,0.8113,0.6644,0.0659,-18.0488,-3.6585,-38.5366
1595879233,0.7911,0.6548,0.0801,-16.6463,3.6585,-38.6585
1595879233,0.7338,0.6484,0.0547,-13.6585,13.1707,-39.0244
1595879233,0.6664,0.6671,0.0233,-9.1463,19.4512,-38.2317
1595879233,0.6520,0.6938,0.0198,-5.7927,17.0122,-36.8902
1595879233,0.6752,0.7019,0.0328,-5.7317,8.4146,-36.7683
1595879233,0.6706,0.7026,0.0599,-4.9390,-0.2439,-37.6220
1595879233,0.6379,0.7037,0.0812,-3.2927,-4.8780,-38.8415
1595879233,0.6286,0.7089,0.0922,-2.5000,-7.1951,-40.0610
1595879233,0.6594,0.7170,0.1001,-2.0122,-11.0976,-41.0366
1595879234,0.6827,0.7278,0.0991,-2.1341,-15.0610,-41.3415
1595879234,0.6824,0.7614,0.1060,-1.2195,-17.4390,-42.0122
1595879234,0.7197,0.8099,0.1093,0.6098,-18.3537,-42.3780
1595879234,0.7723,0.8321,0.1155,-0.4268,-17.6829,-41.0366
1595879234,0.7910,0.8370,0.1412,-2.5000,-12.4390,-39.0854
1595879234,0.7650,0.8402,0.1636,-2.8049,-1.2805,-37.8659
1595879234,0.7496,0.8386,0.1748,-3.7805,11.8293,-36.5854
1595879234,0.7639,0.8563,0.1685,-5.1829,23.2317,-34.3902
1595879234,0.7264,0.8531,0.1461,-4.6341,32.3171,-30.1829
1595879234,0.6258,0.7927,0.1344,-1.0366,35.2439,-27.6220
1595879234,0.5690,0.7521,0.1364,3.1707,26.2195,-27.6220
1595879234,0.6036,0.7686,0.1386,6.2805,6.8293,-24.5122
1595879234,0.6772,0.7787,0.1660,6.8293,-11.8902,-19.5122
1595879234,0.7123,0.7719,0.1910,6.9512,-22.2561,-19.3902
1595879234,0.7819,0.7905,0.2958,10.9756,-21.7073,-21.3415
1595879234,0.6852,0.7662,0.2185,3.7195,11.2805,-21.0976
1595879234,0.6553,0.7677,0.1835,-0.1829,18.5976,-21.3415
1595879234,0.6287,0.7823,0.1646,-1.8293,19.1463,-21.0976
1595879234,0.6223,0.8068,0.1914,-2.5610,1.8293,-20.4878
1595879234,0.6309,0.8230,0.2164,-2.8659,-8.9634,-20.0000
1595879234,0.6420,0.8362,0.2311,-3.1707,-14.3902,-19.9390
1595879234,0.6248,0.8426,0.2407,-4.2073,-12.1951,-20.7317
1595879234,0.5989,0.8476,0.2551,-4.3902,-5.5488,-21.5244
1595879234,0.6500,0.8593,0.2486,-5.6707,2.6829,-23.2927
1595879234,0.6480,0.8505,0.2346,-6.9512,7.0732,-22.6829
1595879234,0.6189,0.8580,0.2177,-5.2439,14.0854,-21.5854
1595879234,0.5834,0.8674,0.2216,-3.1098,11.4024,-20.2439
1595879234,0.5957,0.8575,0.2268,-0.1829,-3.7805,-17.0732
1595879234,0.5920,0.8448,0.2173,-0.2439,-10.6098,-15.7317
1595879234,0.4938,0.8438,0.1890,1.5854,-12.8049,-13.7805
1595879234,0.8532,1.0925,0.2792,4.0854,-17.5000,-8.2927
1595879234,0.5746,0.9268,0.2159,3.4146,25.5488,0.7927
1595879234,0.5092,0.8615,0.2292,-3.4146,18.5976,3.0488
1595879234,0.4991,0.8838,0.2325,-2.8659,17.8659,1.0366
1595879234,0.5205,0.9022,0.2050,-0.3049,18.4146,1.9512
1595879234,0.5546,0.8754,0.1846,-1.2195,14.8780,2.9878
1595879234,0.4993,0.8105,0.1697,-2.5610,12.8049,0.6707
1595879234,0.4548,0.8209,0.1819,-0.0610,13.4756,-0.3659
1595879234,0.4656,0.8600,0.1747,3.4146,12.8049,-1.4024
1595879234,0.5590,0.8873,0.1556,5.1220,7.3780,-1.2805
1595879234,0.5899,0.8331,0.1527,3.8415,3.2317,0.1829
1595879234,0.5747,0.8384,0.1599,3.9634,7.2561,-1.0976
1595879234,0.6054,0.8554,0.1622,4.0244,5.8537,0.0000
1595879234,0.5367,0.8340,0.1843,2.3780,6.8293,0.1220
1595879234,0.5429,0.8251,0.1972,2.5610,4.3902,-0.0610
1595879234,0.5709,0.8419,0.1845,2.1341,-1.8293,0.3659
1595879234,0.5471,0.8669,0.1527,0.6098,-8.6585,2.6220
1595879234,0.4620,0.9557,0.1548,-6.2195,-16.7073,2.0122
1595879234,0.4542,0.9818,0.1417,-5.8537,-15.9146,1.1585
1595879234,0.4913,1.0189,0.1740,-8.7195,-25.7927,4.4512
1595879234,0.5106,1.0079,0.1954,-11.2805,-30.7317,6.3415
1595879234,0.4781,0.9835,0.1786,-10.6098,-31.6463,11.7073
1595879234,0.4799,0.9426,0.1553,-10.9146,-27.9878,15.6098
1595879234,0.4604,0.9464,0.1378,-9.2073,-25.7317,16.8293
1595879234,0.4414,0.9493,0.1243,-7.9878,-23.9024,16.8902
1595879234,0.4654,0.9623,0.1434,-8.7195,-24.6951,15.9756
1595879234,0.5516,0.9905,0.1912,-9.7561,-25.2439,15.4268
1595879234,0.5704,0.9705,0.1539,-13.1707,0.1220,13.6585
1595879234,0.5726,0.9742,0.1291,-11.9512,11.1585,13.2927
1595879234,0.8222,0.7419,0.1846,-7.9878,91.2195,9.8780
1595879234,0.7974,0.6635,0.1927,-11.9512,110.0000,7.2561
1595879234,0.7696,0.6525,0.2105,-6.5854,127.9268,7.6829
1595879234,0.7713,0.5968,0.2513,4.0854,145.4878,13.1098
1595879234,0.7587,0.6000,0.2747,15.1829,137.6829,17.4390
1595879234,0.7704,0.5892,0.2762,18.4756,127.6220,19.7561
1595879235,0.7502,0.5491,0.2714,20.4878,119.0854,20.8537
1595879235,0.7350,0.5340,0.2800,24.9390,111.4634,21.2805
1595879235,0.7518,0.5309,0.3038,29.6341,102.6829,23.2927
1595879235,0.7752,0.5094,0.3213,31.5854,93.2927,26.1585
1595879235,0.7726,0.4872,0.3271,33.4756,86.4024,28.7805
1595879235,0.7797,0.4941,0.3295,38.4146,81.6463,30.8537
1595879235,0.8154,0.5051,0.3557,42.8049,75.4878,32.8659
1595879235,0.8267,0.4970,0.3773,44.8780,67.0122,35.1829
1595879235,0.7753,0.4930,0.3803,48.4146,60.0610,36.0366
1595879235,0.7241,0.4940,0.3752,52.5610,53.7805,37.9878
1595879235,0.7145,0.4892,0.3724,54.1463,44.3902,41.8902
1595879235,0.7518,0.4608,0.3656,54.5732,22.8659,47.5610
1595879235,0.7731,0.4642,0.3430,57.5610,17.1951,48.4756
1595879235,0.8140,0.4771,0.3345,61.3415,14.8171,50.0000
1595879235,0.8112,0.4636,0.3096,63.2927,16.7683,50.9146
1595879235,0.7526,0.4593,0.2635,66.9512,21.2195,50.2439
1595879235,0.6822,0.4736,0.2193,72.5000,24.5732,49.3293
1595879235,0.6682,0.5047,0.2131,75.6707,24.5732,49.0244
1595879235,0.7244,0.5361,0.2343,76.4024,20.3049,49.2683
1595879235,0.7971,0.5472,0.2628,74.5732,15.9756,51.2195
1595879235,0.8414,0.5500,0.2969,72.3171,17.7439,53.9024
1595879235,0.8660,0.5626,0.3221,72.2561,25.9756,55.6098
1595879235,0.8467,0.6027,0.3566,73.2317,36.2195,56.7073
1595879235,0.7812,0.6273,0.3729,72.7439,46.9512,58.1707
1595879235,0.7046,0.6040,0.3464,68.8415,57.5610,60.0000
1595879235,0.6476,0.5974,0.3023,66.8293,62.2561,58.8415
1595879235,0.6353,0.6042,0.2758,68.5976,62.2561,57.8049
1595879235,0.6448,0.6003,0.2571,67.7439,60.2439,58.7805
1595879235,0.6736,0.5998,0.2464,66.3415,54.9390,59.2073
1595879235,0.7065,0.6092,0.2369,65.7927,47.0122,57.9268
1595879235,0.7119,0.6393,0.2539,66.4634,38.0488,55.4268
1595879235,0.6664,0.6607,0.2789,66.9512,31.2195,51.4634
1595879235,0.5905,0.6606,0.2908,65.5488,29.2683,44.7561
1595879235,0.5310,0.6574,0.2824,63.6585,29.1463,36.7683
1595879235,0.5050,0.6680,0.2604,62.3781,26.1585,30.7317
1595879235,0.5242,0.6714,0.2380,61.4024,18.7195,25.6098
1595879235,0.5817,0.6787,0.2340,59.2073,10.3659,19.0244
1595879235,0.6418,0.7044,0.2407,57.7439,5.1829,11.8902
1595879235,0.6620,0.7284,0.2324,55.7317,5.1220,5.4268
1595879235,0.6331,0.7509,0.2151,54.6951,8.4146,0.0000
1595879235,0.6033,0.7856,0.2011,55.4878,10.8537,-4.7561
1595879235,0.5981,0.8188,0.1904,56.5854,8.1098,-8.9634
1595879235,0.5850,0.8410,0.1721,55.2439,2.0732,-12.9268
1595879235,0.5594,0.8632,0.1688,52.9268,-2.0122,-16.6463
1595879235,0.5249,0.8749,0.1395,49.9390,-2.3171,-20.6098
1595879235,0.5250,0.8849,0.1152,47.9878,-0.2439,-25.4878
1595879235,0.5433,0.9056,0.0983,46.8293,2.1341,-29.1463
1595879235,0.5735,0.9226,0.0765,45.6098,4.3293,-31.0976
1595879235,0.5937,0.9486,0.0839,45.3659,6.7073,-33.7195
1595879235,0.5610,0.9474,0.0623,43.4756,9.9390,-36.6463
1595879235,0.5465,0.9576,0.0592,41.7683,15.0000,-39.4512
1595879235,0.5668,0.9957,0.0787,41.8902,17.0122,-42.6829
1595879235,0.5997,1.0099,0.0602,38.2317,18.8415,-45.0610
1595879235,0.6061,1.0168,0.0906,34.2073,25.3049,-47.5000
1595879235,0.5290,0.9999,0.1094,29.4512,35.0610,-49.3293
1595879235,0.4723,0.9852,0.1033,24.5732,49.3902,-51.3415
1595879235,0.4438,0.9783,0.1208,22.1951,58.4756,-53.3537
1595879235,0.4092,0.9579,0.1234,19.0244,58.5976,-52.5000
1595879235,0.4154,0.9385,0.1246,16.0366,55.1220,-51.0976
1595879235,0.4631,0.9349,0.1149,13.7805,50.4268,-49.7561
1595879235,0.4895,0.9528,0.1105,12.2561,44.6951,-46.9512
1595879235,0.4612,0.9534,0.1107,10.7317,40.7927,-43.5976
1595879235,0.4297,0.9482,0.0970,8.9024,37.0122,-40.4268
1595879235,0.4617,0.9711,0.0986,9.3293,27.6220,-37.4390
1595879235,0.4913,1.0024,0.1083,9.5732,15.3049,-33.1098
1595879235,0.5118,1.0001,0.1003,8.7195,7.2561,-30.0000
1595879235,0.5343,1.0151,0.1059,8.4146,4.5732,-29.3902
1595879235,0.5105,1.0355,0.1144,9.7561,4.6341,-28.3537
1595879235,0.4785,1.0286,0.1099,9.5732,7.2561,-26.6463
1595879235,0.4595,1.0269,0.1108,8.8415,10.5488,-25.4268
1595879235,0.4542,1.0224,0.1047,8.3537,13.2927,-23.5976
1595879235,0.4461,1.0085,0.0918,7.4390,17.0732,-21.8902
1595879235,0.4335,0.9996,0.0729,7.2561,20.9756,-21.0976
1595879235,0.4091,1.0118,0.0856,8.5976,23.5976,-20.7317
1595879235,0.3983,1.0300,0.1069,9.5732,24.2683,-20.4878
1595879235,0.3992,1.0433,0.1253,9.4512,23.7195,-20.2439
1595879235,0.3630,1.0379,0.1354,9.0244,24.9390,-18.8415
1595879235,0.3289,1.0237,0.1222,9.4512,27.0732,-17.4390
1595879235,0.3094,1.0032,0.0897,9.5732,26.5854,-15.8537
1595879235,0.3061,0.9938,0.0749,10.1829,23.5976,-14.8171
1595879235,0.3147,1.0020,0.0875,11.8902,19.3293,-15.3659
1595879235,0.3173,1.0106,0.1088,13.4756,15.6707,-16.3415
1595879235,0.2991,1.0091,0.1197,14.8171,14.0244,-17.3171
1595879235,0.2745,0.9952,0.1232,16.0976,13.5976,-18.0488
1595879235,0.2587,0.9741,0.1213,16.4024,12.9268,-18.4146
1595879235,0.2593,0.9658,0.1223,16.2805,11.5244,-18.7805
1595879235,0.2654,0.9525,0.1234,16.6463,9.5122,-19.2073
1595879235,0.2708,0.9385,0.1393,17.0122,6.5244,-20.1220
1595879235,0.2794,0.9424,0.1536,17.3780,2.5610,-21.2195
1595879235,0.2842,0.9395,0.1530,17.6829,-2.3171,-21.7073
1595879235,0.2910,0.9382,0.1507,17.5610,-8.1707,-21.4634
1595879235,0.3114,0.9358,0.1483,16.7683,-14.2683,-20.6707
1595879235,0.3473,0.9448,0.1496,15.5488,-18.5366,-19.7561
1595879235,0.3679,0.9525,0.1467,14.6341,-19.5122,-18.9024
1595879235,0.3624,0.9459,0.1301,13.6585,-17.4390,-17.8659
1595879235,0.3471,0.9415,0.1313,13.1707,-13.9024,-17.2561
1595879235,0.3478,0.9393,0.1425,12.8049,-10.1829,-16.6463
1595879235,0.3677,0.9399,0.1395,11.7683,-6.6463,-15.9146
1595879235,0.3743,0.9440,0.1328,10.2439,-3.3537,-15.0610
1595879235,0.3669,0.9543,0.1282,9.2073,0.6707,-14.2683
1595879235,0.3640,0.9643,0.1125,8.5976,4.2683,-13.3537
1595879235,0.3640,0.9655,0.0869,8.4756,5.6707,-11.8293
1595879235,0.3993,0.9717,0.0756,8.5976,5.7927,-9.8780
1595879235,0.4460,0.9782,0.0930,8.4146,6.0976,-8.4146
1595879235,0.4389,0.9845,0.1015,8.1098,10.4268,-7.8049
1595879235,0.3918,0.9734,0.0895,8.1707,18.9634,-7.7439
1595879235,0.3592,0.9720,0.0823,8.4756,27.2561,-7.9268
1595879235,0.3624,0.9689,0.0986,8.5366,31.6463,-7.6220
1595879235,0.3699,0.9567,0.1050,8.1098,33.5366,-8.0488
1595879235,0.3751,0.9498,0.0935,8.2927,34.3293,-8.4756
1595879236,0.3589,0.9520,0.0930,9.0244,32.9878,-8.2317
1595879236,0.3494,0.9503,0.0855,9.2073,28.5976,-8.4146
1595879236,0.3530,0.9775,0.1008,9.3902,22.5610,-8.5976
1595879236,0.3585,0.9815,0.1248,9.4512,16.4024,-8.2927
1595879236,0.3851,0.9590,0.1343,7.9878,10.1829,-8.5366
1595879236,0.3900,0.9626,0.1412,6.6463,5.8537,-8.3537
1595879236,0.3661,0.9604,0.1439,7.3171,3.9634,-7.3171
1595879236,0.3755,0.9617,0.1297,7.6220,0.6098,-6.2805
1595879236,0.3951,0.9830,0.1347,7.3171,-4.6341,-5.6707
1595879236,0.3983,0.9851,0.1383,6.5854,-9.1463,-5.7317
1595879236,0.3940,0.9946,0.1316,5.7927,-12.0122,-5.9756
1595879236,0.4121,0.9985,0.1360,5.7927,-14.2073,-5.8537
1595879236,0.4243,0.9907,0.1436,4.8780,-15.3659,-5.6098
1595879236,0.4154,0.9875,0.1486,4.5122,-13.1098,-5.3659
1595879236,0.3952,0.9719,0.1404,3.9024,-8.9024,-4.7561
1595879236,0.3937,0.9693,0.1462,3.0488,-6.2805,-3.5976
1595879236,0.3971,0.9644,0.1490,2.3171,-5.3659,-2.6220
1595879236,0.3806,0.9658,0.1509,1.8293,-5.6707,-2.2561
1595879236,0.3417,0.9844,0.1534,1.1585,-7.1951,-2.0732
1595879236,0.3177,0.9977,0.1445,1.7073,-9.6341,-2.8049
1595879236,0.3795,1.0151,0.1443,2.2561,-12.0122,-2.8659
1595879236,0.4081,1.0340,0.1548,2.4390,-13.8415,0.4878
1595879236,0.3568,1.0299,0.1622,2.0732,-16.4634,4.5122
1595879236,0.3140,1.0280,0.1533,1.8293,-20.2439,5.5488
1595879236,0.3120,1.0243,0.1321,2.4390,-27.0732,5.8537
1595879236,0.2744,1.0182,0.1119,3.0488,-36.8902,7.2561
1595879236,0.2951,1.0353,0.1035,5.6707,-48.7195,7.8049
1595879236,0.3586,1.0526,0.1050,6.7073,-58.9024,9.1463
1595879236,0.3844,1.0644,0.0985,3.3537,-64.6341,11.0976
1595879236,0.3749,1.0670,0.0928,0.3659,-65.4268,12.8049
1595879236,0.3534,1.0651,0.0777,-1.8902,-65.0610,13.7805
1595879236,0.3379,1.0727,0.0615,-4.3902,-67.3171,15.3659
1595879236,0.3500,1.0714,0.0508,-7.1341,-70.2439,17.4390
1595879236,0.4012,1.0697,0.0304,-9.7561,-72.3171,20.0610
1595879236,0.4221,1.0821,0.0291,-10.9146,-73.4146,24.0244
1595879236,0.4188,1.0787,0.0322,-11.2195,-73.2927,27.5000
1595879236,0.4012,1.0640,0.0314,-11.8293,-71.2805,29.7561
1595879236,0.4133,1.0478,0.0169,-13.2317,-69.2683,32.3780
1595879236,0.4523,1.0472,0.0150,-13.4146,-66.8293,34.9390
1595879236,0.4305,1.0406,0.0179,-13.2927,-65.3659,37.5000
1595879236,0.3937,1.0247,0.0215,-13.7195,-64.4512,39.6951
1595879236,0.3873,1.0295,0.0231,-14.0854,-66.2195,42.1341
1595879236,0.4032,1.0346,0.0247,-14.7561,-70.1220,46.4024
1595879236,0.4263,1.0356,0.0351,-14.1463,-73.8415,49.5732
1595879236,0.4399,1.0193,0.0422,-13.3537,-76.5244,51.9512
1595879236,0.4517,1.0095,0.0301,-12.6829,-76.8293,54.6951
1595879236,0.4428,1.0105,0.0183,-11.5854,-74.9390,57.3171
1595879236,0.4205,1.0080,0.0047,-10.6098,-72.0732,58.4756
1595879236,0.3937,1.0009,-0.0089,-10.3659,-69.9390,58.2927
1595879236,0.3857,1.0027,-0.0037,-10.5488,-70.6707,57.6829
1595879236,0.3794,0.9950,0.0110,-12.1951,-72.0122,57.1951
1595879236,0.3697,0.9719,0.0049,-14.5732,-72.3781,57.1341
1595879236,0.4313,0.9491,-0.0228,-16.5854,-71.2195,56.4024
1595879236,0.5868,0.9640,-0.0378,-16.2805,-66.7073,54.3902
1595879236,0.6880,0.9911,-0.0337,-13.9024,-60.1220,52.3171
1595879236,0.6454,0.9920,-0.0166,-12.7439,-48.7195,50.2439
1595879236,0.5260,0.9790,-0.0019,-12.3780,-33.6585,47.9878
1595879236,0.4166,0.9651,-0.0129,-12.9878,-24.9390,47.0732
1595879236,0.3803,0.9536,-0.0226,-14.1463,-29.0854,47.8659
1595879236,0.3934,0.9310,-0.0032,-15.6707,-42.7439,48.4146
1595879236,0.4046,0.9008,0.0137,-18.9024,-58.8415,48.8415
1595879236,0.4293,0.8708,0.0094,-22.8659,-73.1707,49.9390
1595879236,0.4965,0.8535,-0.0295,-25.5488,-84.3293,50.0000
1595879236,0.5693,0.8631,-0.0598,-24.9390,-93.6585,48.5976
1595879236,0.6215,0.8809,-0.0837,-24.0854,-101.7073,47.4390
1595879236,0.6448,0.8914,-0.1028,-25.1220,-105.5488,46.2805
1595879236,0.6316,0.8982,-0.1160,-26.7073,-104.4512,45.3659
1595879236,0.6132,0.8950,-0.1147,-27.3780,-101.0976,45.7317
1595879236,0.5847,0.8789,-0.0944,-27.7439,-97.8659,46.7073
1595879236,0.5744,0.8600,-0.0778,-28.2317,-94.0244,47.1951
1595879236,0.5901,0.8442,-0.0798,-29.1463,-86.5854,47.0732
1595879236,0.6066,0.8418,-0.0786,-30.0610,-76.7073,47.2561
1595879236,0.6300,0.8519,-0.0903,-30.9756,-66.7073,47.3781
1595879236,0.6470,0.8505,-0.1124,-32.2561,-58.1707,47.3781
1595879236,0.6505,0.8480,-0.1295,-33.5976,-51.4634,46.1585
1595879236,0.6272,0.8553,-0.1317,-34.5122,-45.9146,43.4756
1595879236,0.5980,0.8613,-0.1367,-35.7317,-42.8659,40.9146
1595879236,0.5758,0.8566,-0.1368,-38.4756,-44.2683,38.1098
1595879236,0.5624,0.8477,-0.1282,-42.0122,-48.1098,34.6341
1595879236,0.5724,0.8314,-0.1235,-45.0000,-53.1098,30.6707
1595879236,0.5894,0.8190,-0.0922,-47.1951,-58.6585,26.4634
1595879236,0.6022,0.8041,-0.0704,-49.5732,-63.7195,23.8415
1595879236,0.6020,0.7759,-0.0867,-53.2927,-70.3659,22.1951
1595879236,0.5552,0.7812,-0.1082,-55.3659,-76.4024,19.2073
1595879236,0.5837,0.8172,-0.1259,-55.7317,-81.8293,15.9146
1595879236,0.6485,0.8659,-0.1481,-57.9268,-90.6098,14.0854
1595879236,0.6795,0.8545,-0.1931,-61.7683,-101.5244,17.2561
1595879236,0.7225,0.8043,-0.2169,-66.2195,-103.8415,17.1951
1595879236,0.7034,0.8079,-0.2275,-67.0122,-95.6098,11.9512
1595879236,0.6611,0.8146,-0.2371,-65.3049,-86.8902,12.5000
1595879236,0.6703,0.7958,-0.2293,-67.1951,-84.8171,13.7195
1595879236,0.7050,0.7806,-0.2114,-70.5488,-85.2439,12.0122
1595879236,0.7137,0.7774,-0.2034,-72.7439,-83.6585,10.0000
1595879236,0.6949,0.7808,-0.1866,-73.9024,-79.2073,7.5000
1595879236,0.6987,0.7845,-0.1711,-75.0000,-71.7683,4.6341
1595879236,0.7065,0.7927,-0.1514,-76.6463,-65.2439,2.6220
1595879236,0.7157,0.7899,-0.1483,-79.2683,-61.2195,1.8293
1595879236,0.7181,0.7750,-0.1583,-83.1098,-56.2195,0.7927
1595879237,0.6843,0.7615,-0.1721,-86.4024,-49.1463,-1.7683
1595879237,0.6439,0.7598,-0.1855,-88.1707,-42.4390,-5.8537
1595879237,0.6469,0.7621,-0.1838,-90.1220,-40.4268,-7.9878
1595879237,0.6889,0.7623,-0.1769,-92.5000,-41.8902,-8.4756
1595879237,0.7336,0.7687,-0.1655,-93.9634,-40.6707,-9.6341
