time,ax,ay,az,gx,gy,gz
1595879211,0.2031,-0.9091,0.2619,-0.3049,-0.1829,0.0610
1595879211,0.2040,-0.9136,0.2652,-0.3049,-0.3659,-0.1220
1595879211,0.2028,-0.9129,0.2582,-0.3049,-0.4268,-0.1220
1595879211,0.2070,-0.9159,0.2560,-0.3659,-0.4268,-0.1220
1595879211,0.2053,-0.9153,0.2600,-0.2439,-0.3049,-0.3049
1595879211,0.2031,-0.9128,0.2610,-0.2439,0.0610,-0.3049
1595879211,0.2009,-0.9107,0.2605,-0.4268,0.3049,-0.3049
1595879211,0.2014,-0.9111,0.2574,-0.3049,0.3659,-0.3659
1595879211,0.1991,-0.9100,0.2568,-0.2439,0.1829,-0.3049
1595879211,0.1986,-0.9081,0.2555,-0.3659,0.1829,-0.3049
1595879211,0.2007,-0.9120,0.2537,-0.4878,0.0610,-0.1829
1595879211,0.2065,-0.9150,0.2554,-0.3659,-0.1220,-0.1220
1595879211,0.2089,-0.9185,0.2553,-0.4268,-0.0610,0.0000
1595879211,0.2054,-0.9177,0.2614,-0.5488,0.3659,0.0000
1595879211,0.2042,-0.9142,0.2631,-0.7317,0.8537,0.0000
1595879211,0.2037,-0.9144,0.2614,-0.6707,0.9756,-0.1220
1595879211,0.1997,-0.9120,0.2568,-0.5488,0.8537,-0.3049
1595879211,0.1977,-0.9102,0.2532,-0.5488,0.7317,-0.4268
1595879211,0.1957,-0.9103,0.2562,-0.3659,0.5488,-0.6707
1595879211,0.1942,-0.9125,0.2606,-0.3659,0.4878,-0.7317
1595879211,0.1951,-0.9113,0.2607,-0.3049,0.4268,-0.5488
1595879211,0.1981,-0.9128,0.2574,-0.3049,0.3659,-0.2439
1595879211,0.2012,-0.9142,0.2615,-0.3659,0.4878,-0.1220
1595879211,0.2013,-0.9141,0.2610,-0.4878,0.6707,-0.0610
1595879211,0.2034,-0.9141,0.2586,-0.5488,0.8537,0.0610
1595879211,0.2020,-0.9155,0.2590,-0.5488,0.9756,0.0610
1595879211,0.2020,-0.9153,0.2557,-0.3659,0.7927,-0.1220
1595879211,0.2048,-0.9163,0.2569,-0.3049,0.5488,-0.1829
1595879211,0.2039,-0.9163,0.2582,-0.1829,0.4878,-0.3659
1595879211,0.2041,-0.9153,0.2603,-0.0610,0.4268,-0.4268
1595879211,0.2021,-0.9149,0.2559,-0.0610,0.5488,-0.4268
1595879211,0.1984,-0.9156,0.2567,-0.1829,0.7927,-0.5488
1595879211,0.1976,-0.9155,0.2587,-0.1829,1.0366,-0.5488
1595879211,0.1967,-0.9132,0.2562,-0.3049,1.1585,-0.4878
1595879211,0.1921,-0.9125,0.2583,-0.3659,1.2805,-0.4268
1595879211,0.1931,-0.9122,0.2556,-0.4878,1.0976,-0.3049
1595879211,0.1945,-0.9105,0.2579,-0.3659,0.8537,-0.3659
1595879211,0.1962,-0.9109,0.2586,-0.4268,0.6707,-0.2439
1595879211,0.1957,-0.9121,0.2563,-0.6707,0.6707,-0.2439
1595879211,0.1979,-0.9138,0.2558,-0.6098,0.7317,-0.2439
1595879211,0.1973,-0.9147,0.2565,-0.6098,0.7317,-0.0610
1595879211,0.1971,-0.9166,0.2593,-0.7927,0.9146,-0.0610
1595879211,0.1995,-0.9182,0.2587,-0.7317,0.9146,0.0000
1595879211,0.2026,-0.9193,0.2590,-0.8537,1.0976,0.0000
1595879212,0.2041,-0.9178,0.2591,-0.7317,1.1585,-0.0610
1595879212,0.2037,-0.9187,0.2613,-0.7317,1.4634,0.0000
1595879212,0.2048,-0.9199,0.2620,-0.6707,2.0122,0.0000
1595879212,0.2057,-0.9225,0.2635,-0.6707,2.3780,0.0000
1595879212,0.2048,-0.9213,0.2630,-0.6707,2.4390,0.0000
1595879212,0.2036,-0.9186,0.2672,-0.8537,2.6220,-0.1220
1595879212,0.2010,-0.9162,0.2671,-0.8537,2.8049,-0.1829
1595879212,0.2015,-0.9116,0.2629,-0.8537,2.6829,-0.1829
1595879212,0.2030,-0.9097,0.2603,-0.7317,2.5610,-0.2439
1595879212,0.1993,-0.9123,0.2591,-0.6098,2.5000,-0.3049
1595879212,0.1998,-0.9120,0.2604,-0.4878,2.4390,-0.3659
1595879212,0.1964,-0.9111,0.2568,-0.3659,2.4390,-0.4268
1595879212,0.1951,-0.9144,0.2555,-0.1829,2.3780,-0.3659
1595879212,0.1929,-0.9149,0.2502,-0.2439,2.2561,-0.3049
1595879212,0.1953,-0.9130,0.2490,-0.3049,2.0732,-0.3049
1595879212,0.1954,-0.9132,0.2491,-0.3659,1.8293,-0.3049
1595879212,0.1959,-0.9128,0.2472,-0.4268,1.7683,-0.3049
1595879212,0.1943,-0.9127,0.2480,-0.7317,1.7683,-0.3049
1595879212,0.1960,-0.9113,0.2478,-0.9146,1.7683,-0.1829
1595879212,0.1970,-0.9133,0.2511,-1.0976,1.5244,-0.1220
1595879212,0.1979,-0.9141,0.2528,-1.0976,1.4634,-0.1829
1595879212,0.1981,-0.9149,0.2562,-1.2195,1.4024,-0.1829
1595879212,0.2003,-0.9141,0.2605,-1.2195,1.4634,-0.1220
1595879212,0.2004,-0.9102,0.2618,-1.3415,1.5244,-0.1220
1595879212,0.1980,-0.9109,0.2638,-1.5244,1.3415,-0.1829
1595879212,0.1987,-0.9143,0.2636,-1.5244,1.0976,0.0000
1595879212,0.1985,-0.9174,0.2658,-1.4024,0.6707,0.0000
1595879212,0.2021,-0.9166,0.2632,-1.5854,0.1220,-0.0610
1595879212,0.2027,-0.9114,0.2673,-1.1585,-0.1829,-0.1829
1595879212,0.2028,-0.9122,0.2649,-1.2805,-0.1220,-0.3659
1595879212,0.2008,-0.9154,0.2626,-1.2195,0.1829,-0.4268
1595879212,0.2019,-0.9165,0.2645,-0.8537,0.1829,-0.4878
1595879212,0.1985,-0.9136,0.2657,-0.8537,0.3659,-0.4268
1595879212,0.1989,-0.9131,0.2640,-0.8537,0.6098,-0.4268
1595879212,0.1994,-0.9138,0.2620,-0.9146,0.9146,-0.4878
1595879212,0.1997,-0.9136,0.2617,-0.8537,0.9756,-0.4268
1595879212,0.1993,-0.9137,0.2609,-0.7317,0.9146,-0.4878
1595879212,0.1986,-0.9154,0.2567,-0.6707,1.0366,-0.4878
1595879212,0.1981,-0.9169,0.2537,-0.7317,1.0976,-0.3659
1595879212,0.1999,-0.9200,0.2545,-0.7317,0.9756,-0.1829
1595879212,0.2018,-0.9186,0.2542,-0.7927,0.8537,0.0000
1595879212,0.2037,-0.9152,0.2557,-0.9146,1.0366,0.1220
1595879212,0.2042,-0.9118,0.2607,-1.0976,1.4634,0.1220
1595879212,0.2027,-0.9052,0.2601,-1.3415,1.8293,-0.1829
1595879212,0.2015,-0.9052,0.2579,-1.4634,2.1341,-0.4268
1595879212,0.1995,-0.9037,0.2607,-1.4634,2.1951,-0.4268
1595879212,0.2042,-0.9049,0.2643,-1.3415,2.1341,-0.4878
1595879212,0.2043,-0.9022,0.2684,-1.3415,2.3171,-0.4878
1595879212,0.2083,-0.9052,0.2706,-1.2805,2.7439,-0.3049
1595879212,0.2117,-0.9101,0.2758,-1.0976,3.2927,-0.1829
1595879212,0.2135,-0.9137,0.2825,-0.9146,4.0244,0.0610
1595879212,0.2134,-0.9167,0.2821,-0.7927,4.8780,0.1220
1595879212,0.2102,-0.9211,0.2866,-0.6098,5.6707,0.1220
1595879212,0.1962,-0.9231,0.2986,-0.1829,6.4634,-0.1220
1595879212,0.1649,-0.9262,0.3327,-0.1220,7.5000,-0.6707
1595879212,0.1307,-0.9337,0.3820,-0.0610,8.7805,-1.3415
1595879212,0.1032,-0.9376,0.4356,0.0610,8.3537,-2.1951
1595879212,0.0430,-0.9459,0.5326,0.7927,5.3049,-3.5976
1595879212,-0.0367,-0.9709,0.6813,2.2561,0.8537,-4.3293
1595879212,-0.0865,-0.9718,0.7755,7.6829,-7.1341,-3.2317
1595879212,-0.0400,-0.9755,0.8441,16.8902,-19.2073,-2.3171
1595879212,-0.0406,-0.9800,0.9274,27.6829,-27.5000,-3.2927
1595879212,-0.0615,-0.9706,1.0276,36.8293,-26.2195,-5.1220
1595879212,-0.0873,-0.9507,1.1086,45.6707,-20.4268,-3.0488
1595879212,-0.1328,-0.9402,1.1827,51.0366,-15.3049,0.0610
1595879212,-0.1877,-0.9163,1.2172,55.1829,-11.9512,6.2195
1595879212,-0.2228,-0.9375,1.2343,60.0000,-10.5488,13.3537
1595879212,-0.2268,-0.9427,1.2457,66.4024,-12.7439,20.9146
1595879212,-0.2302,-0.9638,1.2421,73.6585,-16.9512,29.0244
1595879212,-0.2403,-0.9849,1.2346,80.1829,-22.1951,36.4634
1595879212,-0.2351,-1.0402,1.2336,86.2805,-30.1220,44.2683
1595879212,-0.1827,-1.0967,1.2491,93.1707,-40.3049,51.5244
1595879212,-0.1564,-1.1554,1.2435,101.7683,-50.4268,58.7805
1595879212,-0.1615,-1.2203,1.2238,107.9878,-62.3781,66.6463
1595879212,-0.1580,-1.2858,1.2030,115.4268,-78.2927,75.4268
1595879212,-0.1347,-1.3423,1.1568,126.2805,-97.9268,83.1707
1595879212,-0.1093,-1.4062,1.0861,139.2073,-118.9634,89.0244
1595879212,-0.0676,-1.4301,1.0098,152.5000,-141.2195,94.0854
1595879212,0.0069,-1.4316,0.9127,165.3049,-167.3781,98.4756
1595879212,0.1044,-1.4448,0.8101,174.6342,-199.3293,99.0854
1595879212,0.1945,-1.4434,0.6116,183.1098,-233.4146,93.5976
1595879212,0.2556,-1.4374,0.4086,190.5488,-268.4146,81.7073
1595879212,0.3210,-1.4257,0.2471,194.2073,-303.1098,68.2317
1595879212,0.3669,-1.3462,0.1070,197.0122,-333.5366,50.6098
1595879212,0.3926,-1.2383,0.1199,205.5488,-355.3659,24.4512
1595879212,0.4283,-1.1800,0.1512,202.9878,-367.0122,0.1220
1595879212,0.4766,-1.0781,0.1360,187.3171,-385.3659,-16.6463
1595879212,0.4781,-0.9298,-0.0275,175.8537,-417.8659,-42.1951
1595879212,0.5074,-0.9218,-0.2043,153.5976,-468.3537,-77.0732
1595879212,0.8149,-0.9728,-0.3211,123.0488,-542.5000,-118.1707
1595879212,1.3531,-0.9808,-0.4167,106.0976,-622.9268,-168.7195
1595879212,1.7823,-0.9839,-0.4112,95.2439,-663.6586,-220.2439
1595879212,1.8622,-0.9661,-0.3300,85.2439,-628.4756,-257.4390
1595879212,1.5659,-0.9760,-0.2222,74.2683,-530.6097,-276.0366
1595879212,1.1894,-0.9742,-0.1138,62.6829,-424.0854,-284.2683
1595879212,0.9408,-0.8687,-0.0865,61.0976,-340.0000,-285.2439
1595879212,0.7569,-0.7526,-0.1249,62.8049,-277.6829,-281.8903
1595879212,0.6778,-0.6802,-0.1785,57.4390,-236.5244,-277.1951
1595879213,0.7023,-0.6398,-0.2263,45.7927,-217.7439,-272.9268
1595879213,0.7692,-0.5978,-0.2596,35.9146,-209.8171,-270.9756
1595879213,0.8223,-0.5876,-0.2469,26.4024,-201.2195,-267.6219
1595879213,0.7905,-0.6058,-0.2383,11.5854,-187.0122,-260.3049
1595879213,0.6945,-0.5550,-0.2621,-3.5976,-163.1707,-251.4634
1595879213,0.5667,-0.4750,-0.2954,-15.0610,-134.8171,-239.8781
1595879213,0.4523,-0.4128,-0.3268,-27.3780,-108.0488,-225.4268
1595879213,0.4149,-0.3433,-0.3577,-36.7073,-87.3781,-210.9756
1595879213,0.4858,-0.2706,-0.3777,-42.7439,-78.4146,-196.4634
1595879213,0.5905,-0.2284,-0.3937,-49.6951,-78.4756,-182.9268
1595879213,0.6572,-0.1815,-0.3953,-55.6707,-76.8293,-171.9512
1595879213,0.6561,-0.1287,-0.3876,-58.9634,-67.6220,-162.5000
1595879213,0.6276,-0.0983,-0.4072,-61.4024,-57.1951,-154.0854
1595879213,0.6145,-0.0835,-0.4275,-64.1463,-50.9756,-146.2805
1595879213,0.6254,-0.0746,-0.4478,-67.9878,-48.6585,-139.0244
1595879213,0.6279,-0.0534,-0.4650,-72.3171,-49.0854,-131.0976
1595879213,0.6307,-0.0247,-0.4672,-76.9512,-52.0122,-122.7439
1595879213,0.6578,-0.0019,-0.4725,-82.6220,-56.7683,-114.7561
1595879213,0.7131,0.0107,-0.4869,-89.6951,-61.5854,-107.8659
1595879213,0.7411,0.0338,-0.4893,-96.2195,-63.4146,-100.8537
1595879213,0.7501,0.0529,-0.4784,-101.5854,-60.4268,-94.6341
1595879213,0.7709,0.0807,-0.4575,-106.2805,-54.4512,-88.9024
1595879213,0.7950,0.1149,-0.4467,-108.4146,-46.7683,-82.8049
1595879213,0.8134,0.1424,-0.4717,-110.7317,-38.1098,-77.0122
1595879213,0.8201,0.1668,-0.5195,-113.7195,-30.1829,-71.5854
1595879213,0.8322,0.1758,-0.5541,-118.4756,-24.5122,-67.0122
1595879213,0.8522,0.1647,-0.5848,-125.3049,-23.2317,-62.1951
1595879213,0.8838,0.1616,-0.6116,-133.2927,-27.6220,-56.8902
1595879213,0.9056,0.1401,-0.6336,-142.5610,-34.9390,-50.7317
1595879213,0.9427,0.1202,-0.6262,-153.5366,-44.0854,-44.0854
1595879213,0.9723,0.1258,-0.6027,-162.0732,-53.0488,-36.8293
1595879213,0.9763,0.1317,-0.5430,-169.5732,-59.8171,-29.8171
1595879213,0.9766,0.1091,-0.4760,-177.2561,-62.5610,-24.3902
1595879213,0.9975,0.0979,-0.4186,-183.4146,-62.9878,-20.9146
1595879213,0.9869,0.0941,-0.3968,-186.1585,-61.2805,-18.9634
1595879213,0.9745,0.1154,-0.3907,-187.6219,-56.0366,-19.1463
1595879213,0.9714,0.1419,-0.3558,-187.8659,-49.4512,-21.2195
1595879213,0.9614,0.1531,-0.3272,-187.9878,-43.7805,-24.7561
1595879213,0.9501,0.1792,-0.3232,-186.7683,-38.4756,-29.7561
1595879213,0.9890,0.1578,-0.3610,-185.5488,-34.2683,-35.1829
1595879213,1.0386,0.1070,-0.4175,-188.2927,-32.9878,-35.0610
1595879213,1.0442,0.0710,-0.4642,-192.5000,-29.7561,-33.5976
1595879213,1.0064,0.0441,-0.4824,-197.9268,-21.7073,-32.7439
1595879213,0.9870,-0.0111,-0.4724,-207.9878,-13.4146,-31.7073
1595879213,0.9896,-0.0405,-0.4062,-220.6098,-5.0610,-31.7073
1595879213,0.9641,-0.0394,-0.3512,-233.3537,6.8293,-32.9878
1595879213,1.0086,-0.0630,-0.3204,-245.3049,23.4146,-34.5732
1595879213,1.0655,-0.1072,-0.2734,-254.5732,43.0488,-35.9146
1595879213,1.0767,-0.1867,-0.2073,-263.9634,70.3049,-36.9512
1595879213,1.0660,-0.2629,-0.1572,-275.2439,102.9268,-39.7561
1595879213,1.0580,-0.2979,-0.0768,-285.8537,133.5976,-41.8293
1595879213,1.0105,-0.3356,0.0438,-295.0610,161.2805,-47.6829
1595879213,0.9363,-0.3865,0.1739,-305.5488,187.6219,-55.1220
1595879213,0.8457,-0.3578,0.3142,-314.0244,208.1098,-64.0244
1595879213,0.7585,-0.2607,0.4473,-316.4024,221.7683,-74.1463
1595879213,0.7291,-0.2727,0.5923,-323.2927,232.8659,-83.4146
1595879213,0.7150,-0.2986,0.7752,-332.6219,244.8171,-95.5488
1595879213,-1.3718,-0.1728,0.6556,-334.0244,264.6342,-106.4024
1595879213,-1.9999,-1.9999,1.0897,-340.7927,244.9390,-96.8902
1595879213,-0.7609,-1.2422,-0.6407,-25.8537,-151.5244,133.4756
1595879213,1.5859,-0.1729,0.7186,324.6951,-486.0366,-24.4512
1595879213,1.5528,1.4669,0.5422,237.5610,-271.8293,-126.4024
1595879213,1.1613,1.9999,0.4104,34.8171,-99.8781,-80.3659
1595879213,0.2993,1.3418,0.1906,114.1463,25.6707,-161.4024
1595879213,0.0398,0.2214,0.5953,30.4268,112.0122,-150.9146
1595879213,0.2087,0.4724,0.5978,-78.6585,133.3537,-7.9878
1595879213,0.6376,0.9378,0.5076,-34.8780,81.8293,-17.3171
1595879213,0.9622,0.8087,0.4909,-21.7073,42.0122,-55.0610
1595879213,1.0019,0.7488,0.5753,-54.9390,10.3659,-29.4512
1595879213,1.0158,0.7327,0.6077,-48.5366,-14.2683,-16.3415
1595879213,0.8967,0.6003,0.4561,-36.5244,-6.7683,-9.5732
1595879213,0.6935,0.6083,0.4037,-36.6463,28.0488,-2.9878
1595879213,0.5581,0.6782,0.4578,-29.6341,60.9146,-2.9878
1595879213,0.4864,0.7144,0.5556,-25.3659,71.1585,1.0366
1595879213,0.4695,0.6893,0.6581,-23.5976,56.6463,4.8780
1595879213,0.4862,0.6199,0.7003,-19.0244,32.1951,4.3902
1595879213,0.5513,0.5599,0.6565,-12.3780,10.1829,3.3537
1595879213,0.6605,0.5284,0.5902,-5.6098,-9.0854,2.1341
1595879213,0.7453,0.5061,0.5406,-1.8902,-23.6585,0.4268
1595879213,0.7769,0.4965,0.5153,-0.6707,-29.6341,-1.4024
1595879213,0.7808,0.4988,0.5096,-0.2439,-26.7683,-3.2317
1595879213,0.7775,0.4958,0.5082,0.1220,-20.9756,-5.8537
1595879213,0.7737,0.4954,0.5114,0.6707,-17.9878,-9.5732
1595879213,0.7720,0.5181,0.5237,2.3780,-17.1951,-14.2683
1595879214,0.7539,0.5507,0.5546,4.6341,-14.4512,-18.5366
1595879214,0.7294,0.5610,0.5927,6.1585,-9.0244,-20.4878
1595879214,0.7102,0.5495,0.5953,7.6220,-2.0122,-21.0366
1595879214,0.6929,0.5388,0.5945,9.2073,2.9268,-22.1951
1595879214,0.6799,0.5279,0.5769,10.3049,1.6463,-24.0244
1595879214,0.6660,0.5292,0.5667,11.3415,-4.8780,-26.4634
1595879214,0.6317,0.5410,0.5577,12.7439,-11.6463,-27.9268
1595879214,0.5834,0.5592,0.5347,13.4756,-16.3415,-27.5000
1595879214,0.5411,0.5718,0.5089,13.1707,-20.1829,-26.1585
1595879214,0.5499,0.5756,0.5016,12.0732,-25.7927,-24.5732
1595879214,0.6012,0.5702,0.5114,10.6098,-32.8049,-22.8659
1595879214,0.6432,0.5575,0.5188,8.7805,-38.1707,-21.4634
1595879214,0.6979,0.5487,0.5133,4.8171,-40.8537,-20.5488
1595879214,0.7062,0.5765,0.5555,2.8049,-34.1463,-19.6341
1595879214,0.6499,0.5718,0.5600,0.6707,-25.8537,-19.8171
1595879214,0.6129,0.5544,0.5386,-1.2805,-17.1951,-19.3293
1595879214,0.6230,0.5059,0.4971,-5.0610,-5.9756,-16.2805
1595879214,0.6086,0.4865,0.4772,-7.3171,-2.3171,-16.1585
1595879214,0.5872,0.4557,0.4536,-10.4878,1.0976,-15.9756
1595879214,0.5591,0.4155,0.4540,-14.0854,3.8415,-15.1829
1595879214,0.5366,0.3739,0.4803,-18.2927,6.4024,-14.1463
1595879214,0.5224,0.3512,0.4555,-22.1341,10.7317,-13.0488
1595879214,0.5281,0.3995,0.4092,-25.5488,15.4878,-12.1341
1595879214,0.5651,0.4886,0.3851,-28.3537,18.1707,-11.8902
1595879214,0.6062,0.5026,0.3878,-29.6341,20.6098,-11.7073
1595879214,0.6249,0.4744,0.4124,-33.1098,26.7073,-10.0610
1595879214,0.6195,0.4689,0.4155,-37.1341,36.9512,-6.9512
1595879214,0.6027,0.4507,0.4213,-38.9024,45.8537,-5.3049
1595879214,0.5856,0.4078,0.4512,-41.8293,48.4756,-4.3902
1595879214,0.5786,0.3799,0.4738,-45.0610,46.8293,-3.8415
1595879214,0.5773,0.3582,0.4786,-46.9512,43.9634,-3.2927
1595879214,0.6042,0.3026,0.4702,-50.1220,40.3049,-3.3537
1595879214,0.6230,0.2213,0.4348,-54.3902,37.0732,-3.9024
1595879214,0.5795,0.1161,0.4645,-59.0244,34.3293,-5.1829
1595879214,0.5134,0.0356,0.5093,-63.6585,32.8659,-6.3415
1595879214,0.4200,0.0623,0.4357,-66.4634,29.7561,-4.5122
1595879214,0.4000,0.0753,0.4127,-68.7195,18.7805,-6.8293
1595879214,0.4438,0.0568,0.3350,-76.2195,2.6829,-8.8415
1595879214,0.5140,0.0415,0.2844,-87.3171,-17.2561,-6.9512
1595879214,0.5531,-0.0464,0.2709,-96.8293,-40.3049,-6.5854
1595879214,0.5345,-0.0838,0.2912,-107.6220,-68.1098,-6.5854
1595879214,0.5233,-0.0483,0.3245,-112.3171,-92.0122,-0.4878
1595879214,0.5859,-0.0444,0.4152,-110.1220,-111.4634,5.0610
1595879214,0.6661,-0.0387,0.4695,-105.2439,-121.5244,6.7683
1595879214,0.6942,-0.0142,0.4886,-100.9146,-116.9512,13.0488
1595879214,0.6406,-0.0259,0.4399,-99.6341,-109.7561,20.3049
1595879214,0.5879,-0.0646,0.3741,-101.4024,-106.9512,26.5854
1595879214,0.6146,-0.0594,0.3461,-96.7683,-106.2195,35.7927
1595879214,0.6352,-0.0126,0.3581,-85.1220,-106.1585,50.0000
1595879214,0.6248,0.0145,0.4036,-72.7439,-104.5122,64.0854
1595879214,0.5579,0.0740,0.4083,-61.5244,-100.1829,75.6707
1595879214,0.4695,0.1373,0.3663,-53.3537,-98.9634,86.4634
1595879214,0.3851,0.1486,0.3159,-48.2317,-102.0122,99.8781
1595879214,0.3601,0.1410,0.2975,-45.1220,-115.8537,118.3537
1595879214,0.4460,0.1111,0.2759,-40.4268,-136.4024,139.7561
1595879214,0.5836,0.0590,0.2287,-35.9756,-158.2317,162.7439
1595879214,0.7336,-0.0146,0.1978,-31.8902,-181.4634,184.4512
1595879214,0.8269,-0.1096,0.2208,-26.5244,-203.9634,204.0244
1595879214,0.9079,-0.1486,0.2697,-16.5244,-219.6342,223.1098
1595879214,1.0040,-0.1537,0.3039,-0.9146,-221.9512,243.1098
1595879214,1.2060,-0.2089,0.3198,14.8780,-211.4025,264.7561
1595879214,1.4517,-0.3098,0.3390,30.3659,-190.2439,286.4024
1595879214,1.4940,-0.3115,0.3365,48.1098,-162.7439,304.3293
1595879214,1.4109,-0.2170,0.2905,65.0610,-131.5854,317.6219
1595879214,1.2794,-0.2175,0.2800,66.7683,-120.1220,329.8781
1595879214,1.1209,-0.3079,0.2667,57.9878,-148.5366,337.1951
1595879214,1.0458,-0.3665,0.1974,58.1707,-193.0488,336.9512
1595879214,1.0234,-0.3229,0.1417,66.9512,-223.1098,340.2439
1595879214,0.9689,-0.2666,0.1068,75.7927,-231.0976,350.4878
1595879214,0.9521,-0.2834,0.1132,82.0122,-222.9268,359.9390
1595879214,1.0032,-0.2969,0.1877,90.7927,-207.8049,368.5366
1595879214,1.0865,-0.2732,0.1360,99.5122,-185.3049,377.0122
1595879214,1.1204,-0.2482,-0.0007,100.9756,-165.0610,379.8781
1595879214,1.0465,-0.3210,-0.0527,90.6098,-173.2317,378.1707
1595879214,0.9781,-0.4498,-0.0546,77.6829,-211.4634,369.7561
1595879214,0.9803,-0.6080,-0.0416,68.1707,-260.9756,359.3903
1595879214,1.1535,-0.8202,-0.0044,66.6463,-293.5976,351.0366
1595879214,1.4197,-0.9418,0.0315,84.0244,-270.0610,348.3537
1595879214,1.5772,-0.9181,0.0992,113.4756,-178.9634,354.0244
1595879214,1.4032,-0.9021,0.1027,129.2073,-63.5366,362.6219
1595879214,1.0391,-1.0245,0.0613,127.4390,55.7317,370.0610
1595879214,0.6772,-1.2697,0.0994,117.3781,147.5610,376.6464
1595879214,0.4545,-1.6216,0.1711,95.9146,183.0488,389.2073
1595879214,0.3670,-1.9924,0.2648,69.5732,174.4512,401.2805
1595879214,0.4023,-1.9999,0.2573,45.7927,143.4146,409.3293
1595879214,0.5438,-1.9944,0.1238,32.0732,106.2805,408.1707
1595879214,0.6714,-1.9991,-0.0376,21.7073,69.0244,388.6585
1595879214,0.7514,-1.9999,-0.1446,13.7195,29.9390,347.0122
1595879214,0.8073,-1.9830,-0.1670,14.6341,-12.7439,298.7805
1595879214,0.8223,-1.7117,-0.1097,15.0610,-50.5488,255.0610
1595879214,0.8113,-1.2756,0.0487,6.2805,-74.4512,212.5000
1595879214,0.7908,-0.9463,0.2421,-2.7439,-79.5122,167.0122
1595879214,0.6534,-0.7850,0.3411,-13.4756,-67.8049,114.5122
1595879214,0.4050,-0.7922,0.2704,-23.1098,-32.1951,58.3537
1595879214,0.1318,-0.8952,0.1511,-26.5854,21.7683,4.0244
1595879214,-0.0218,-0.9473,0.1038,-27.4390,70.4268,-38.1707
1595879214,-0.0789,-0.9270,0.1240,-27.1951,101.2195,-64.0854
1595879214,-0.0807,-0.9014,0.1653,-24.9390,113.5976,-80.8537
1595879214,0.0173,-0.8711,0.1906,-20.3659,114.8171,-88.9024
1595879214,0.1566,-0.9172,0.2366,-16.8902,109.6951,-86.9512
1595879214,0.2477,-0.9810,0.1729,-16.9512,99.8171,-81.9512
1595879215,0.2923,-0.9883,0.1067,-18.1707,86.7073,-72.5000
1595879215,0.5309,-0.9580,0.0185,-20.9756,23.8415,-54.8781
1595879215,0.5798,-0.9440,-0.0070,-21.8902,-0.8537,-54.5732
1595879215,0.5323,-0.9174,-0.0143,-22.0122,-5.6098,-49.7561
1595879215,0.4592,-0.9008,-0.0095,-20.4878,5.4878,-41.8293
1595879215,0.4194,-0.8922,-0.0045,-17.5610,22.4390,-35.2439
1595879215,0.3551,-0.9097,-0.0285,-9.0854,60.4268,-28.4146
1595879215,0.3298,-0.9272,-0.0539,-4.6951,80.7927,-26.7073
1595879215,0.2990,-0.9376,-0.0607,-0.4878,98.0488,-24.9390
1595879215,0.2697,-0.9315,-0.0632,3.1707,108.4756,-22.5000
1595879215,0.2504,-0.9408,-0.0690,6.2805,113.2317,-21.1585
1595879215,0.2476,-0.9626,-0.0726,8.4146,112.3781,-18.7195
1595879215,0.2552,-0.9866,-0.0669,10.3659,106.9512,-15.7927
1595879215,0.2542,-1.0013,-0.0594,12.1341,100.2439,-13.6585
1595879215,0.2482,-1.0064,-0.0621,13.8415,95.3049,-12.3171
1595879215,0.2451,-1.0085,-0.0670,15.7317,92.4390,-11.4634
1595879215,0.2466,-1.0125,-0.0698,16.9512,89.7561,-10.9146
1595879215,0.2582,-1.0180,-0.0718,17.8049,86.7073,-11.4634
1595879215,0.2740,-1.0161,-0.0654,18.6585,83.9024,-12.8659
1595879215,0.2848,-1.0128,-0.0568,18.9634,82.9268,-15.2439
1595879215,0.2900,-1.0171,-0.0502,18.4756,84.0854,-18.4146
1595879215,0.2916,-1.0236,-0.0469,17.3171,87.1341,-21.7073
1595879215,0.2867,-1.0375,-0.0392,16.4024,91.6463,-25.4878
1595879215,0.2793,-1.0450,-0.0334,15.3049,96.8902,-29.3293
1595879215,0.2669,-1.0511,-0.0267,14.6951,102.7439,-32.9268
1595879215,0.2542,-1.0532,-0.0240,14.5122,108.7195,-36.7073
1595879215,0.2430,-1.0482,-0.0280,14.6341,113.7805,-40.0610
1595879215,0.2347,-1.0317,-0.0302,14.2683,117.2561,-43.1707
1595879215,0.2349,-1.0084,-0.0225,14.0244,119.2073,-45.7927
1595879215,0.2381,-0.9846,-0.0220,14.1463,120.2439,-48.1098
1595879215,0.2377,-0.9673,-0.0214,13.7195,120.6707,-50.1220
1595879215,0.2414,-0.9600,-0.0134,12.5000,119.2073,-51.5854
1595879215,0.2429,-0.9609,-0.0010,10.4878,115.3659,-52.9878
1595879215,0.2440,-0.9770,0.0198,9.1463,109.5732,-54.1463
1595879215,0.2459,-0.9966,0.0392,9.3293,103.4146,-54.9390
1595879215,0.2407,-0.9924,0.0444,10.2439,97.3781,-55.3659
1595879215,0.2300,-0.9770,0.0450,10.0610,91.2805,-55.4878
1595879215,0.2269,-0.9658,0.0435,9.6341,85.0610,-56.0976
1595879215,0.2333,-0.9540,0.0433,9.5122,78.4146,-56.0366
1595879215,0.2408,-0.9358,0.0445,10.0000,71.7073,-55.4268
1595879215,0.2513,-0.9272,0.0477,10.3049,65.3659,-54.4512
1595879215,0.2679,-0.9277,0.0533,10.9146,59.6951,-52.8659
1595879215,0.2804,-0.9299,0.0577,11.8902,55.4268,-50.6098
1595879215,0.2781,-0.9382,0.0557,13.4756,53.2317,-48.2927
1595879215,0.2715,-0.9443,0.0443,15.1220,51.5854,-46.4634
1595879215,0.2562,-0.9321,0.0276,16.5244,49.0854,-44.8171
1595879215,0.2317,-0.9091,0.0151,17.4390,45.8537,-44.2073
1595879215,0.2097,-0.8873,0.0073,17.6829,41.8293,-43.2317
1595879215,0.1892,-0.8716,0.0062,17.5610,37.0732,-41.3415
1595879215,0.1693,-0.8514,0.0143,17.3780,32.9268,-38.7805
1595879215,0.1658,-0.8337,0.0252,17.0732,29.0244,-35.8537
1595879215,0.1677,-0.8161,0.0305,17.0122,25.1829,-33.2927
1595879215,0.1592,-0.8369,0.0263,16.8293,22.1341,-30.9146
1595879215,0.1374,-0.8936,-0.0080,16.4024,20.4878,-28.5976
1595879215,0.1137,-0.9491,-0.0545,15.3049,18.6585,-24.2683
1595879215,0.0952,-0.9946,-0.0854,13.2317,14.8171,-18.8415
1595879215,0.0983,-1.0218,-0.0927,11.1585,9.2683,-13.1098
1595879215,0.1172,-1.0377,-0.0914,10.2439,3.5976,-7.1341
1595879215,0.1312,-1.0493,-0.0849,9.0854,-0.4268,-1.7073
1595879215,0.1407,-1.0670,-0.0676,6.9512,-1.3415,3.1098
1595879215,0.1516,-1.0845,-0.0428,5.0000,1.2195,7.8659
1595879215,0.1551,-1.0917,-0.0129,3.4146,6.3415,13.5976
1595879215,0.1533,-1.0934,0.0192,1.8293,13.3537,18.3537
1595879215,0.1552,-1.0865,0.0527,0.7927,20.9146,21.8902
1595879215,0.1559,-1.0698,0.0872,-0.6098,27.8659,24.6951
1595879215,0.1613,-1.0408,0.1125,-2.8049,34.4512,26.1585
1595879215,0.1574,-0.9974,0.1288,-4.4512,42.6220,26.5244
1595879215,0.1388,-0.9529,0.1368,-6.2805,52.3781,26.0976
1595879215,0.1188,-0.9219,0.1401,-8.2317,62.0122,25.4878
1595879215,0.1091,-0.9091,0.1473,-10.0000,70.0610,24.7561
1595879215,0.1047,-0.9052,0.1449,-11.0976,76.5244,24.2683
1595879215,0.1097,-0.9056,0.1407,-12.0122,81.5244,24.2073
1595879215,0.1154,-0.9207,0.1415,-12.9878,85.9146,24.3902
1595879215,0.1117,-0.9340,0.1374,-13.4756,90.5488,24.7561
1595879215,0.1010,-0.9447,0.1371,-13.8415,95.3049,25.6707
1595879215,0.0938,-0.9543,0.1361,-14.6341,99.0854,27.1341
1595879215,0.0895,-0.9586,0.1407,-14.8780,101.2195,28.6585
1595879215,0.0823,-0.9564,0.1501,-15.0000,101.5854,30.1829
1595879215,0.0827,-0.9546,0.1653,-15.0000,100.4878,32.1341
1595879215,0.0855,-0.9462,0.1769,-14.5122,98.6585,34.2073
1595879215,0.0893,-0.9350,0.1911,-13.7805,96.9512,36.3415
1595879215,0.0906,-0.9237,0.2061,-13.5366,95.2439,38.1098
1595879215,0.0868,-0.9147,0.2179,-13.6585,92.4390,39.1463
1595879215,0.0803,-0.9022,0.2288,-13.7195,88.5976,39.3293
1595879215,0.0712,-0.8904,0.2292,-12.9878,84.0244,38.5976
1595879215,0.0651,-0.8827,0.2280,-12.6829,79.2683,37.4390
1595879215,0.0608,-0.8719,0.2252,-12.3171,75.1829,35.8537
1595879215,0.0458,-0.8609,0.2211,-11.5854,72.0122,33.5366
1595879215,0.0264,-0.8541,0.2209,-11.2195,69.5122,31.0976
1595879215,0.0118,-0.8477,0.2200,-11.6463,65.9756,29.0244
1595879215,0.0051,-0.8422,0.2226,-12.1341,60.4268,26.6463
1595879215,0.0060,-0.8371,0.2264,-12.0122,53.7805,24.0244
1595879215,0.0056,-0.8309,0.2242,-12.0122,47.0122,21.5244
1595879215,0.0106,-0.8278,0.2191,-12.1951,40.5488,19.5732
1595879215,0.0202,-0.8267,0.2167,-12.6829,33.9634,18.1098
1595879215,0.0255,-0.8271,0.2142,-12.8049,27.1951,16.8293
1595879215,0.0352,-0.8300,0.2123,-12.9268,20.6707,16.0366
1595879215,0.0573,-0.8312,0.2134,-12.6220,14.6951,15.4878
1595879215,0.0768,-0.8395,0.2222,-11.4024,10.0610,14.9390
1595879215,0.0936,-0.8477,0.2239,-10.4268,6.8902,14.3902
1595879215,0.1058,-0.8491,0.2246,-9.6341,5.0610,14.0854
1595879215,0.1103,-0.8466,0.2222,-8.9634,4.2683,13.4756
1595879215,0.1149,-0.8430,0.2170,-8.8415,3.7805,12.5610
1595879215,0.1215,-0.8341,0.2133,-8.7195,3.2317,11.8293
1595879215,0.1300,-0.8278,0.2164,-8.8415,2.6829,11.2195
1595879215,0.1372,-0.8339,0.2169,-8.9024,2.2561,10.4268
1595879215,0.1417,-0.8363,0.2174,-8.7805,2.2561,10.1220
1595879215,0.1459,-0.8358,0.2217,-8.7805,2.7439,9.6341
1595879215,0.1482,-0.8329,0.2211,-9.1463,3.3537,8.3537
1595879215,0.1472,-0.8369,0.2201,-9.3902,4.0854,6.5854
1595879215,0.1444,-0.8436,0.2140,-9.4512,5.0610,4.9390
1595879215,0.1431,-0.8571,0.2010,-9.2683,5.6098,3.6585
1595879215,0.1478,-0.8806,0.1924,-8.8415,5.5488,2.0732
1595879215,0.1532,-0.9153,0.1870,-8.1707,5.1829,0.6098
1595879215,0.1454,-0.9528,0.1760,-7.3780,5.4268,-0.7927
1595879215,0.1302,-0.9866,0.1731,-6.7683,5.9756,-2.1341
1595879215,0.1279,-1.0135,0.1711,-6.0976,6.2805,-3.7195
1595879215,0.1233,-1.0244,0.1672,-5.5488,5.0610,-4.9390
1595879216,0.1141,-1.0239,0.1604,-5.1829,2.9878,-7.1951
1595879216,0.0950,-1.0197,0.1486,-5.3049,1.2805,-10.1829
1595879216,0.0862,-1.0024,0.1345,-6.4024,-1.2805,-11.7073
1595879216,0.0977,-0.9741,0.1284,-6.8902,-6.4024,-13.1707
1595879216,0.1156,-0.9808,0.1331,-7.4390,-12.5610,-15.7927
1595879216,0.1245,-1.0435,0.1407,-8.1098,-16.8902,-17.7439
1595879216,0.1187,-1.1285,0.1527,-7.8659,-17.4390,-18.1098
1595879216,0.1184,-1.1777,0.1727,-8.0488,-15.8537,-17.5000
1595879216,0.1312,-1.1865,0.1982,-8.7195,-15.0610,-17.4390
1595879216,0.1503,-1.1914,0.2172,-9.5732,-15.1829,-18.9024
1595879216,0.1641,-1.2084,0.2272,-10.1220,-14.9390,-20.3659
1595879216,0.1690,-1.2311,0.2317,-10.1829,-12.9878,-20.6707
1595879216,0.1727,-1.2283,0.2297,-9.5732,-9.5122,-20.3049
1595879216,0.1793,-1.2074,0.2316,-9.0854,-5.6707,-20.6707
1595879216,0.1885,-1.1894,0.2315,-8.5976,-1.6463,-22.0732
1595879216,0.1835,-1.1735,0.2305,-7.6220,3.1707,-24.2683
1595879216,0.1654,-1.1414,0.2294,-6.5854,9.0244,-27.3171
1595879216,0.1555,-1.1043,0.2339,-5.7317,14.8171,-30.7927
1595879216,0.1486,-1.0759,0.2429,-4.4512,19.0854,-34.9390
1595879216,0.1395,-1.0609,0.2484,-2.0732,21.4024,-39.7561
1595879216,0.1315,-1.0555,0.2443,1.4634,23.9024,-44.0854
1595879216,0.1326,-1.0627,0.2410,4.7561,27.0122,-47.4390
1595879216,0.1334,-1.0743,0.2437,8.2927,30.6707,-50.3659
1595879216,0.1263,-1.0952,0.2514,12.9878,35.6707,-52.7439
1595879216,0.1133,-1.1144,0.2469,18.1098,41.5854,-54.4512
1595879216,0.1000,-1.1260,0.2410,23.6585,46.5854,-55.3659
1595879216,0.0861,-1.1183,0.2257,29.5732,49.3293,-56.2195
1595879216,0.0770,-1.0952,0.2126,35.2439,49.4512,-57.6829
1595879216,0.0839,-1.0679,0.1999,40.3049,47.3781,-59.3902
1595879216,0.0728,-1.0384,0.1874,45.7317,43.9634,-61.3415
1595879216,0.0643,-0.9989,0.1700,50.8537,40.6707,-62.0732
1595879216,0.0779,-0.9552,0.1596,55.2439,39.3293,-61.2805
1595879216,0.1124,-0.9338,0.1819,58.9024,37.3780,-62.2561
1595879216,0.1377,-0.9486,0.2178,62.0122,32.5610,-64.2073
1595879216,0.1574,-0.9631,0.2175,67.0122,26.4024,-64.8171
1595879216,0.1614,-0.9589,0.2057,72.6829,22.7439,-63.5366
1595879216,0.1685,-0.9339,0.1767,76.3415,22.8659,-62.6220
1595879216,0.1634,-0.9019,0.1426,79.1463,25.8537,-64.3902
1595879216,0.1286,-0.8657,0.1301,81.3415,27.0122,-67.3781
1595879216,0.0964,-0.8501,0.1249,81.7683,20.7927,-68.3537
1595879216,0.1095,-0.8550,0.1232,81.5244,4.5122,-67.5000
1595879216,0.1779,-0.8641,0.1335,82.3171,-16.2195,-65.2439
1595879216,0.2532,-0.8856,0.1597,83.2927,-31.4024,-62.3171
1595879216,0.2914,-0.9120,0.1758,83.5976,-35.6707,-60.1829
1595879216,0.2990,-0.9283,0.1719,83.1098,-32.1341,-59.0244
1595879216,0.2980,-0.9150,0.1609,81.7683,-29.2073,-58.3537
1595879216,0.2974,-0.8863,0.1530,79.8781,-30.9146,-58.5366
1595879216,0.3132,-0.8616,0.1491,77.5610,-35.9756,-58.5976
1595879216,0.3379,-0.8310,0.1455,75.2439,-41.1585,-58.1707
1595879216,0.3730,-0.8234,0.1657,72.8049,-44.0244,-57.6829
1595879216,0.4085,-0.8474,0.1991,70.4878,-43.4756,-56.5854
1595879216,0.4127,-0.8796,0.2123,70.7317,-37.9268,-54.0244
1595879216,0.3934,-0.8895,0.1967,70.5488,-29.7561,-50.9146
1595879216,0.3853,-0.8788,0.1872,65.8537,-24.1463,-48.4756
1595879216,0.3963,-0.8555,0.1831,60.5488,-23.1098,-48.3537
1595879216,0.4058,-0.8308,0.1744,57.1951,-24.8780,-49.2073
1595879216,0.4061,-0.8121,0.1633,53.6585,-26.6463,-49.8171
1595879216,0.4178,-0.7991,0.1546,49.5122,-27.1341,-50.1829
1595879216,0.4443,-0.7877,0.1554,46.0976,-26.2195,-49.8171
1595879216,0.4708,-0.7766,0.1649,42.8659,-23.3537,-49.0854
1595879216,0.4788,-0.7736,0.1801,38.9024,-17.9878,-47.9878
1595879216,0.4764,-0.7717,0.1861,34.4512,-10.7317,-46.5244
1595879216,0.4752,-0.7679,0.1894,29.4512,-3.4146,-45.4268
1595879216,0.4807,-0.7672,0.2051,23.4146,2.1341,-45.1220
1595879216,0.4954,-0.7536,0.2202,17.6829,4.5732,-45.1829
1595879216,0.5015,-0.7245,0.2281,12.8659,5.0000,-45.1220
1595879216,0.4968,-0.7050,0.2366,7.1341,4.5122,-44.8780
1595879216,0.4948,-0.6777,0.2499,0.4268,2.6220,-44.7561
1595879216,0.4869,-0.6683,0.2502,-5.7927,0.4268,-44.7561
1595879216,0.4899,-0.6591,0.2662,-11.0366,-2.2561,-44.9390
1595879216,0.5197,-0.6472,0.2868,-12.7439,-5.2439,-43.9024
1595879216,0.5568,-0.6541,0.3113,-14.2683,-6.0976,-41.0976
1595879217,0.5732,-0.6678,0.3329,-15.4268,-2.6829,-38.5366
1595879217,0.5795,-0.6915,0.3448,-15.1829,4.1463,-37.0122
1595879217,0.5912,-0.7256,0.3654,-16.2805,10.9146,-33.9634
1595879217,0.5990,-0.7549,0.3855,-18.5366,14.8171,-29.3902
1595879217,0.6172,-0.7872,0.4124,-21.9512,15.9756,-24.0244
1595879217,0.6383,-0.8118,0.4298,-24.5732,15.4878,-19.0244
1595879217,0.6537,-0.8465,0.4512,-27.1341,15.1829,-15.1220
1595879217,0.6626,-0.8825,0.4705,-29.9390,13.2317,-11.3415
1595879217,0.6565,-0.8976,0.5028,-31.5854,9.8780,-7.7439
1595879217,0.6615,-0.8754,0.5341,-30.0610,6.9512,-4.8171
1595879217,0.6852,-0.8548,0.5624,-26.8902,5.3659,-4.1463
1595879217,0.6943,-0.8406,0.5785,-25.1829,5.5488,-6.8902
1595879217,0.6793,-0.8049,0.5792,-24.2073,8.1098,-11.0366
1595879217,0.6498,-0.7611,0.5698,-22.8659,11.7073,-16.1585
1595879217,0.6223,-0.7266,0.5496,-22.5610,14.0854,-22.9878
1595879217,0.6072,-0.7009,0.5181,-22.4390,14.2683,-30.4268
1595879217,0.5995,-0.6881,0.4910,-22.5000,12.6220,-37.4390
1595879217,0.6059,-0.6924,0.4724,-23.2317,10.3659,-43.5976
1595879217,0.6208,-0.6994,0.4780,-23.4146,8.9634,-48.5366
1595879217,0.6393,-0.7123,0.5015,-22.5610,9.9390,-52.6220
1595879217,0.6440,-0.7256,0.5267,-21.4024,14.5122,-54.7561
1595879217,0.6299,-0.7172,0.5303,-18.9634,23.0488,-56.4634
1595879217,0.5770,-0.5759,0.4156,-20.1829,31.5244,-43.4756
1595879217,0.5700,-0.5737,0.3945,-23.0488,31.7073,-41.4634
1595879217,0.5776,-0.5625,0.3851,-23.7805,31.3415,-40.3659
1595879217,0.5728,-0.5676,0.3681,-25.1829,32.4390,-39.8780
1595879218,0.5663,-0.5684,0.3489,-27.2561,34.7561,-39.3293
1595879218,0.5424,-0.5848,0.3633,-28.5976,38.9634,-35.6098
1595879218,0.4741,-0.5498,0.3693,-24.4512,45.6098,-27.5610
1595879218,0.4329,-0.5517,0.3096,-25.6098,46.4024,-17.0122
1595879218,0.4376,-0.5518,0.2960,-27.9268,41.0976,-13.1707
1595879218,0.4492,-0.5583,0.2916,-30.6098,34.8171,-9.8171
1595879218,0.4083,-0.5609,0.3324,-33.2927,21.2805,4.6951
1595879218,0.4109,-0.5852,0.2662,-36.4634,16.5244,10.9756
1595879218,0.4030,-0.6104,0.2316,-38.2317,15.5488,13.9634
1595879218,0.3839,-0.9765,0.2057,-42.7439,31.5854,54.8171
1595879218,0.3547,-1.0501,0.1846,-44.8171,37.8659,58.8415
1595879218,0.3530,-1.0184,0.1873,-50.0000,31.2195,52.8659
1595879218,0.1517,-0.9183,0.5013,-11.7683,57.5000,-0.3049
1595879218,0.2228,-0.9646,0.5363,-9.6951,48.8415,2.1341
1595879218,0.3665,-1.0228,0.5677,-14.6951,-9.5122,-23.3537
1595879218,0.4780,-1.0054,0.3743,-13.1098,-28.4756,-18.5366
1595879218,0.8445,-1.1998,0.4828,-12.4390,-26.3415,-23.9024
1595879218,0.2090,-0.8190,0.5573,5.6707,14.2073,-40.5488
1595879218,0.0810,-0.8750,0.1597,-9.0244,-96.4024,-49.8171
1595879218,1.0266,-0.9546,-0.3604,-10.4268,-197.5610,-54.4512
1595879218,0.6167,-0.9149,-0.3680,-15.1829,-135.9756,-58.7805
1595879218,0.0665,-0.7578,-0.0512,-2.4390,-262.1951,-92.1341
1595879218,0.6948,-0.8127,-0.2220,39.3293,-138.7805,-71.2195
1595879218,0.5896,-0.7874,-0.2001,42.3171,-107.0122,-70.5488
1595879218,0.6544,-0.8018,-0.2322,48.4146,-72.0122,-66.5854
1595879218,0.4725,-0.7477,-0.2697,49.6341,-47.9268,-66.3415
1595879218,0.6750,-0.7382,-0.3925,63.5976,-95.3049,-58.1707
1595879218,0.6716,-0.7383,-0.4192,70.9146,-83.5366,-57.4390
1595879218,0.6535,-0.7324,-0.4343,78.3537,-73.6585,-56.5854
1595879218,0.6615,-0.7401,-0.4810,92.0732,-65.0610,-51.9512
1595879218,0.6763,-0.7422,-0.5051,98.7195,-62.5610,-48.6585
1595879218,0.6852,-0.7421,-0.5137,116.2805,-62.8049,-36.1585
1595879218,0.6880,-0.7252,-0.5172,120.7317,-67.0732,-32.7439
1595879218,0.6989,-0.6218,-0.4520,139.3902,-87.0732,-17.5000
1595879218,0.6826,-0.5979,-0.4282,140.7927,-89.2683,-16.8902
1595879218,0.6597,-0.5785,-0.3872,140.6707,-90.7317,-16.0976
1595879218,0.6523,-0.5618,-0.3502,140.2439,-94.5732,-15.4268
1595879218,0.6688,-0.5358,-0.3376,140.6098,-99.5122,-14.6341
1595879218,0.6749,-0.5186,-0.3284,141.1585,-101.6463,-13.6585
1595879218,0.7014,-0.5275,-0.3219,141.8902,-102.3171,-12.3171
1595879218,0.7378,-0.5371,-0.3300,143.5366,-103.4756,-9.6951
1595879218,0.7527,-0.5324,-0.3434,145.4878,-104.1463,-6.7073
1595879218,0.7791,-0.5342,-0.3696,147.0732,-104.8171,-4.2073
1595879218,0.7989,-0.5323,-0.3980,147.6829,-105.8537,-2.7439
1595879218,0.8014,-0.5214,-0.4048,147.6829,-106.4024,-2.0122
1595879218,0.8197,-0.5110,-0.3734,146.7073,-103.4146,-1.2195
1595879218,0.8109,-0.5067,-0.3305,147.6829,-92.0122,-0.9756
1595879218,0.8048,-0.5091,-0.3208,149.5732,-85.3049,-0.6098
1595879218,0.7993,-0.5009,-0.3154,151.8902,-79.2073,0.4268
1595879218,0.7971,-0.5023,-0.3234,154.1463,-75.9146,1.8293
1595879218,0.7941,-0.5165,-0.3415,155.9756,-75.4878,2.0122
1595879218,0.8081,-0.5250,-0.3570,157.3171,-76.8293,1.7683
1595879218,0.8179,-0.5308,-0.3704,158.4756,-79.0854,1.2195
1595879218,0.8112,-0.5251,-0.3781,159.3902,-80.9146,0.5488
1595879218,0.8156,-0.5209,-0.3886,159.8781,-82.0122,0.0610
1595879218,0.8066,-0.5265,-0.3827,160.1829,-82.9878,-0.1829
1595879218,0.7960,-0.5262,-0.3774,160.2439,-83.7805,-0.1829
1595879218,0.7925,-0.5189,-0.3829,160.7317,-85.0610,0.1829
1595879218,0.7933,-0.5235,-0.3777,160.9146,-86.5244,-0.0610
1595879218,0.8043,-0.5226,-0.3669,160.9756,-88.6585,-0.3049
1595879218,0.8052,-0.5300,-0.3685,160.9756,-91.1585,-0.6707
1595879218,0.7907,-0.5392,-0.3603,159.6342,-93.7195,-1.8293
1595879218,0.8096,-0.5331,-0.3591,158.7805,-97.4390,-3.3537
1595879218,0.8163,-0.5319,-0.3544,157.6219,-100.9756,-4.9390
1595879218,0.8022,-0.5336,-0.3373,155.4878,-103.2317,-6.7073
1595879218,0.8016,-0.5322,-0.3275,153.5366,-104.6341,-7.5610
1595879218,0.7990,-0.5288,-0.3084,151.6463,-104.6341,-8.0488
1595879218,0.8040,-0.5300,-0.2971,149.6951,-103.5366,-8.5366
1595879218,0.8038,-0.5300,-0.2979,147.6219,-102.3171,-8.9634
1595879218,0.8029,-0.5453,-0.2971,144.7561,-102.9878,-9.6951
1595879218,0.8180,-0.5623,-0.2917,141.0976,-105.6098,-10.6707
1595879219,0.8378,-0.5616,-0.2873,137.8049,-107.6829,-12.1951
1595879219,0.8333,-0.5579,-0.2766,134.5732,-107.0732,-13.4146
1595879219,0.8315,-0.5536,-0.2614,130.8537,-104.9390,-14.2073
1595879219,0.8404,-0.5580,-0.2426,127.3171,-102.5000,-14.3902
1595879219,0.8457,-0.5557,-0.2209,123.7805,-99.4512,-14.5732
1595879219,0.8475,-0.5537,-0.2023,120.7317,-95.1829,-14.5732
1595879219,0.8361,-0.5508,-0.1952,117.9878,-90.6707,-14.5732
1595879219,0.8328,-0.5471,-0.1924,114.6341,-87.3781,-14.9390
1595879219,0.8427,-0.5431,-0.1907,110.7927,-86.2805,-14.8780
1595879219,0.8499,-0.5343,-0.1790,106.5854,-86.3415,-14.8171
1595879219,0.8577,-0.5231,-0.1669,102.5000,-85.3049,-14.3293
1595879219,0.8629,-0.5143,-0.1572,98.3537,-82.7439,-13.6585
1595879219,0.8668,-0.5082,-0.1436,94.0854,-79.2683,-12.8659
1595879219,0.8649,-0.4982,-0.1325,89.2073,-76.0366,-11.9512
1595879219,0.8712,-0.4908,-0.1193,84.4512,-74.5732,-11.0976
1595879219,0.8771,-0.4807,-0.1099,79.8171,-74.3902,-10.1220
1595879219,0.8839,-0.4722,-0.1002,74.6341,-74.4512,-9.0244
1595879219,0.8937,-0.4755,-0.0870,69.0854,-73.5976,-8.2317
1595879219,0.8895,-0.4697,-0.0790,64.3902,-71.5244,-7.8659
1595879219,0.8940,-0.4623,-0.0704,59.6341,-68.9024,-7.4390
1595879219,0.8845,-0.4474,-0.0607,55.3049,-65.0000,-7.3780
1595879219,0.8733,-0.4343,-0.0551,50.9756,-60.6098,-7.5610
1595879219,0.8779,-0.4280,-0.0532,46.2805,-55.7927,-7.8049
1595879219,0.8928,-0.4184,-0.0657,42.3171,-51.3415,-8.1707
1595879219,0.9117,-0.4180,-0.0830,38.5976,-46.9512,-7.9878
1595879219,0.9236,-0.4205,-0.1015,35.0610,-42.3171,-7.1341
1595879219,0.9427,-0.4301,-0.1157,31.8293,-38.7805,-6.2805
1595879219,0.9838,-0.4467,-0.1384,29.0244,-36.9512,-4.6341
1595879219,1.0278,-0.4694,-0.1553,26.2805,-36.0976,-2.4390
1595879219,1.0662,-0.5016,-0.1651,24.2683,-34.0854,0.3049
1595879219,1.0890,-0.5259,-0.1959,23.3537,-31.5244,5.0000
1595879219,1.1066,-0.5536,-0.2329,23.2317,-29.3902,9.2683
1595879219,1.1299,-0.5947,-0.2725,22.8659,-27.9268,12.3780
1595879219,1.1601,-0.6267,-0.3150,22.0732,-26.4634,14.4512
1595879219,1.1616,-0.6447,-0.3325,20.9756,-24.5732,15.3049
1595879219,1.0923,-0.6283,-0.3289,18.8415,-15.9756,13.5976
1595879219,0.9908,-0.5955,-0.2509,17.1341,-1.6463,10.1829
1595879219,0.9258,-0.5599,-0.1769,17.5000,8.5366,6.9512
1595879219,0.9047,-0.5129,-0.1551,19.0244,8.4146,2.2561
1595879219,0.8915,-0.4942,-0.1500,18.9024,7.1341,-0.5488
1595879219,0.8727,-0.4592,-0.1605,19.3902,4.8780,-2.8049
1595879219,0.8619,-0.4271,-0.1941,17.1341,-2.1341,-7.3171
1595879219,0.8655,-0.4085,-0.1951,15.0610,-5.6098,-9.5732
1595879219,0.8561,-0.3903,-0.1887,12.8659,-6.7683,-11.6463
1595879219,0.8391,-0.3727,-0.1864,9.7561,-6.3415,-13.8415
1595879219,0.8388,-0.3609,-0.1816,6.8293,-5.1829,-15.9146
1595879219,0.8443,-0.3513,-0.1707,4.5122,-3.2317,-17.8049
1595879219,0.8524,-0.3410,-0.1712,2.5000,-0.1220,-18.9024
1595879219,0.8723,-0.3378,-0.1760,1.0976,2.7439,-20.1220
1595879219,0.8899,-0.3359,-0.1845,0.1220,5.6098,-21.3415
1595879219,0.8887,-0.3257,-0.2097,0.1829,9.0854,-21.6463
1595879219,0.8878,-0.3313,-0.2339,-0.7927,11.5854,-21.7683
1595879219,0.9112,-0.3472,-0.2499,-2.8049,10.9146,-21.9512
1595879219,0.9373,-0.3499,-0.2629,-4.1463,9.4512,-22.3171
1595879219,0.9471,-0.3506,-0.2712,-5.3659,10.9146,-22.5610
1595879219,0.9385,-0.3513,-0.2833,-6.4024,15.7317,-22.3171
1595879219,0.9412,-0.3660,-0.2796,-7.6829,21.4024,-21.4634
1595879219,0.9638,-0.3818,-0.2695,-8.9634,26.4634,-20.4268
1595879219,0.9667,-0.3907,-0.2611,-9.6341,31.0366,-19.8780
1595879219,0.9563,-0.4122,-0.2365,-10.4878,35.2439,-20.0000
1595879219,0.9414,-0.4210,-0.2126,-10.9146,37.4390,-20.4268
1595879219,0.9171,-0.4158,-0.1932,-10.0610,37.8659,-21.6463
1595879219,0.8890,-0.4102,-0.1780,-8.9634,37.8049,-22.6829
1595879219,0.8853,-0.4097,-0.1698,-8.5976,36.9512,-23.2927
1595879219,0.8939,-0.4081,-0.1609,-7.9268,36.0366,-24.2683
1595879219,0.8875,-0.4087,-0.1479,-6.8293,36.7683,-24.9390
1595879219,0.8690,-0.4070,-0.1386,-6.1585,38.1707,-25.1220
1595879219,0.8549,-0.3914,-0.1360,-6.0366,37.1341,-25.1829
1595879219,0.8676,-0.3997,-0.1312,-11.8902,13.5976,-23.2927
1595879219,0.8843,-0.4166,-0.1284,-15.0000,8.2317,-20.8537
1595879219,0.8876,-0.4293,-0.1281,-15.7317,8.6585,-18.8415
1595879219,0.9014,-0.4478,-0.1258,-16.7683,9.5732,-16.7683
1595879219,0.9365,-0.4869,-0.1143,-16.9512,13.7195,-13.5366
1595879219,0.9430,-0.5141,-0.1075,-17.3171,17.9878,-12.2561
1595879219,0.9240,-0.5836,-0.0433,-18.5366,30.7317,-11.0366
1595879219,0.9153,-0.5992,-0.0243,-17.9268,34.2073,-11.4634
1595879219,0.9133,-0.6167,0.0009,-16.5854,39.5122,-11.4634
1595879219,0.9467,-0.6523,-0.0085,-14.2073,45.3659,-10.8537
1595879219,1.0087,-0.7679,-0.0724,-8.9634,52.9878,-4.2683
1595879219,1.0223,-0.8005,-0.1047,-5.8537,51.7073,3.4146
1595879219,1.0294,-0.8412,-0.1180,-4.0244,43.0488,16.7073
1595879220,0.9302,-0.7429,-0.0401,-7.4390,27.9878,24.8780
1595879220,0.8845,-0.6771,0.0194,-11.4024,19.6341,25.0610
1595879220,0.8311,-0.6161,0.0910,-16.0976,12.9268,23.4146
1595879220,0.7768,-0.5610,0.1566,-20.1829,10.3049,22.3171
1595879220,0.7309,-0.5219,0.1995,-23.9634,11.7073,21.2195
1595879220,0.7047,-0.4862,0.2233,-27.3171,13.9024,19.8171
1595879220,0.7148,-0.4666,0.2269,-29.9390,14.3902,18.7805
1595879220,0.7505,-0.4551,0.2048,-31.2195,14.4512,18.1098
1595879220,0.7665,-0.4507,0.1805,-31.8902,16.3415,17.6829
1595879220,0.7859,-0.4615,0.1389,-32.9878,18.9634,18.4146
1595879220,0.8328,-0.4849,0.0906,-33.8415,20.5488,20.3049
1595879220,0.8864,-0.5032,0.0503,-34.6341,21.2195,22.0122
1595879220,0.9185,-0.5187,0.0117,-35.4268,22.0122,23.7195
1595879220,0.9238,-0.5300,-0.0023,-36.5854,24.5732,25.4268
1595879220,0.9213,-0.5380,-0.0049,-37.4390,28.0488,26.8902
1595879220,0.9117,-0.5363,-0.0011,-37.7439,32.0122,27.3780
1595879220,0.8868,-0.5228,-0.0030,-37.4390,37.3780,27.6829
1595879220,0.8316,-0.5189,0.0035,-36.8293,44.8171,28.0488
1595879220,0.7888,-0.5238,0.0214,-37.0122,52.6220,29.0244
1595879220,0.7734,-0.5220,0.0297,-36.6463,57.4390,30.6098
1595879220,0.7663,-0.5211,0.0435,-35.3049,60.2439,31.6463
1595879220,0.7522,-0.5320,0.0649,-34.0244,63.5976,32.6220
1595879220,0.7109,-0.5226,0.0856,-33.0488,67.3781,35.2439
1595879220,0.7073,-0.5224,0.0979,-33.0488,65.6098,36.0366
1595879220,0.6886,-0.5182,0.1016,-32.6220,61.4634,36.2195
1595879220,0.6729,-0.5217,0.0887,-32.5000,56.9512,36.5244
1595879220,0.6690,-0.5406,0.0925,-33.5366,52.4390,37.1951
1595879220,0.6777,-0.5591,0.0961,-34.0244,48.0488,37.6220
1595879220,0.6881,-0.5670,0.0941,-34.1463,45.4878,37.6220
1595879220,0.6980,-0.5830,0.0853,-35.3049,45.1220,38.4756
1595879220,0.7301,-0.6091,0.0974,-37.8049,45.1829,39.7561
1595879220,0.7239,-0.6060,0.0927,-38.9634,45.2439,40.3049
1595879220,0.6981,-0.5883,0.0732,-40.0000,48.2927,39.4512
1595879220,0.6498,-0.5901,0.0733,-42.0122,52.5610,38.4756
1595879220,0.6119,-0.5994,0.0901,-45.3049,50.1829,38.2927
1595879220,0.6457,-0.6053,0.1094,-47.3171,42.0732,38.0488
1595879220,0.6842,-0.6038,0.1270,-47.5000,34.6341,36.6463
1595879220,0.6885,-0.6016,0.1350,-47.0122,33.2317,35.3049
1595879220,0.6651,-0.5972,0.1318,-46.0976,37.3171,35.0610
1595879220,0.6246,-0.6063,0.1124,-45.4268,42.6829,34.7561
1595879220,0.6411,-0.6308,0.1005,-45.6098,44.9390,34.6951
1595879220,0.6432,-0.6271,0.0662,-44.0854,44.2073,35.7317
1595879220,0.6165,-0.6194,0.0473,-43.4756,43.2317,35.6098
1595879220,0.6307,-0.6409,0.0641,-44.5732,42.1341,36.2805
1595879220,0.6548,-0.6693,0.0834,-45.7317,39.8780,37.0122
1595879220,0.6725,-0.6990,0.1030,-45.8537,38.6585,37.1951
1595879220,0.6777,-0.7166,0.1196,-44.8780,37.6829,38.3537
1595879220,0.6281,-0.6998,0.0928,-44.0244,32.8659,39.9390
1595879220,0.5933,-0.6809,0.0221,-44.6341,24.2683,37.3780
1595879220,0.5824,-0.6800,-0.0635,-45.1829,15.1829,34.0854
1595879220,0.6529,-0.7158,-0.0745,-46.2805,10.0000,34.9390
1595879220,0.7089,-0.7705,-0.0512,-44.2073,15.4268,36.7683
1595879220,0.6580,-0.8351,-0.0380,-41.8293,30.4878,35.6098
1595879220,0.5959,-0.8856,-0.0252,-41.7073,44.8780,36.5244
1595879220,0.5571,-0.9152,-0.0304,-41.1585,50.9756,40.0610
1595879220,0.5163,-0.9232,-0.0685,-39.3902,50.6098,43.2927
1595879220,0.5306,-0.9407,-0.0907,-38.0488,49.0244,46.1585
1595879220,0.5789,-0.9738,-0.0850,-35.9146,49.0854,48.4756
1595879220,0.5988,-0.9883,-0.0627,-33.4146,50.0610,50.3049
1595879220,0.5699,-0.9725,-0.0494,-31.0976,53.1098,50.3659
1595879220,0.5320,-0.9499,-0.0392,-30.2439,56.2805,48.6585
1595879220,0.5016,-0.9239,-0.0333,-30.9756,56.0976,45.8537
1595879220,0.4689,-0.9024,-0.0272,-31.5854,55.1220,42.2561
1595879220,0.4393,-0.8932,-0.0139,-32.6220,55.3049,40.1220
1595879220,0.4111,-0.8950,0.0010,-32.6829,55.6707,38.9634
1595879220,0.4013,-0.8795,-0.0008,-31.5244,57.6829,36.8902
1595879220,0.3938,-0.8762,-0.0212,-29.2683,57.5610,36.7683
1595879220,0.3865,-0.8862,-0.0190,-29.0854,55.3659,36.7073
1595879220,0.3812,-0.8901,-0.0095,-28.7195,50.6707,35.1829
1595879220,0.3635,-0.8965,-0.0174,-29.2073,46.0976,34.3293
1595879220,0.3514,-0.9008,-0.0332,-30.2439,42.9878,34.4512
1595879220,0.3593,-0.9120,-0.0421,-30.1829,40.9756,33.9634
1595879220,0.3550,-0.9183,-0.0595,-30.5488,37.7439,33.9024
1595879220,0.3786,-0.9095,-0.0770,-30.7317,33.0488,34.4512
1595879220,0.4320,-0.9091,-0.0944,-29.7561,28.9024,33.9634
1595879220,0.4508,-0.9221,-0.1057,-29.6341,26.9512,32.2561
1595879220,0.4409,-0.9338,-0.0938,-30.9146,26.0976,29.7561
1595879220,0.4401,-0.9499,-0.0701,-32.0732,24.8780,27.6829
1595879220,0.4221,-0.9562,-0.0602,-32.3780,23.5366,25.2439
1595879220,0.4203,-0.9460,-0.0564,-32.0122,22.1951,22.3171
1595879220,0.4097,-0.9274,-0.0408,-30.9756,19.8780,20.4878
1595879220,0.3737,-0.9136,-0.0278,-29.3293,18.2317,20.7317
1595879220,0.3395,-0.8947,-0.0369,-27.3171,17.9878,22.5000
1595879220,0.3540,-0.9143,-0.0518,-22.9878,19.5122,24.6341
1595879220,0.3918,-0.9077,-0.0490,-20.3659,21.4024,24.3902
1595879220,0.3655,-0.8997,-0.0670,-17.6220,19.4512,23.2317
1595879220,0.3645,-0.9285,-0.0757,-17.9268,19.0854,22.3780
1595879220,0.4050,-0.9547,-0.0715,-18.5976,16.4634,25.6707
1595879220,0.4059,-0.9653,-0.0803,-16.8902,13.8415,26.6463
1595879220,0.3801,-0.9678,-0.0852,-17.0122,14.0244,27.5000
1595879220,0.3528,-0.9761,-0.0967,-17.3171,14.3902,28.3537
1595879220,0.3236,-0.9813,-0.1006,-17.4390,13.2927,28.2927
1595879220,0.3289,-0.9703,-0.0927,-17.1341,9.2683,27.0122
1595879220,0.3592,-0.9801,-0.0793,-15.9146,3.4756,25.9146
1595879220,0.3619,-0.9965,-0.0776,-15.1220,0.1829,26.6463
1595879220,0.3344,-0.9794,-0.0948,-15.1220,0.6098,27.4390
1595879220,0.2892,-0.9566,-0.0862,-15.4878,1.1585,27.3780
1595879220,0.3077,-0.9775,-0.0561,-16.4024,-1.9512,27.1951
1595879220,0.3977,-1.0106,-0.0502,-16.8293,-6.6463,28.3537
1595879220,0.3663,-0.9633,-0.0550,-14.6951,-8.5976,27.0732
1595879220,0.3198,-0.9575,-0.0504,-14.5122,-3.8415,25.9756
1595879220,0.3203,-0.9890,-0.0486,-16.0366,0.9756,25.7317
1595879220,0.2427,-1.0078,0.0171,-15.0000,0.4268,24.0244
1595879220,0.0190,-0.9741,0.1433,-12.8049,-0.0610,23.9634
1595879220,0.4719,-1.0361,-0.0411,-7.9268,10.0610,32.0732
1595879220,0.5576,-1.0157,-0.1657,-9.3293,-6.0366,22.3171
1595879220,0.3264,-0.9367,-0.0443,-6.2195,-25.1220,5.1829
1595879220,0.3135,-1.0115,-0.0286,-9.6341,-4.2683,19.3293
1595879220,0.3431,-0.9756,-0.0637,-14.8780,-1.2805,20.8537
1595879220,0.4086,-0.9895,-0.0468,-10.9756,-8.7805,10.1829
1595879220,0.3889,-1.0038,-0.0585,-13.1707,-0.1220,11.2195
1595879220,0.3522,-0.9882,-0.0781,-14.5732,7.3171,11.7073
1595879220,0.3606,-0.9874,-0.0345,-14.6951,11.4634,11.2195
1595879220,0.3975,-0.9755,-0.0067,-12.3171,15.7927,11.5244
1595879220,0.3612,-0.9800,-0.0090,-10.1220,24.1463,12.7439
1595879220,0.3448,-0.9854,-0.0057,-8.9634,35.2439,14.8171
1595879220,0.3439,-0.9727,0.0145,-5.6707,42.8049,16.4634
1595879220,0.3362,-0.9617,0.0188,-3.0488,45.1829,16.7683
1595879220,0.3572,-0.9799,0.0172,-1.8293,48.2317,17.4390
1595879221,0.3907,-0.9930,-0.0422,-1.4024,52.8659,18.5976
1595879221,0.3641,-0.9827,-0.0759,-2.8659,54.0854,19.7561
1595879221,0.2512,-0.9649,-0.0643,-7.1341,47.1951,19.6951
1595879221,0.3137,-0.9847,-0.0253,-10.7317,35.6098,23.2927
1595879221,0.4395,-1.0040,-0.0038,-13.9024,19.2073,23.4756
1595879221,0.4154,-0.9607,-0.0045,-7.8049,17.1951,17.1951
1595879221,0.3825,-0.9608,-0.0222,-6.4024,30.1829,20.7317
1595879221,0.3595,-0.9611,-0.0481,-5.8537,41.0366,22.0122
1595879221,0.3710,-0.9598,-0.0651,-3.8415,47.5000,20.4878
1595879221,0.3598,-0.9490,-0.0888,-0.5488,53.7805,19.4512
1595879221,0.3050,-0.9449,-0.1054,0.1220,58.3537,18.4756
1595879221,0.2810,-0.9714,-0.1525,-1.8293,59.3902,17.9268
1595879221,0.2656,-1.0114,-0.0688,-4.3902,57.3171,16.0366
1595879221,0.2172,-0.9999,0.0046,-7.5610,48.5976,15.9146
1595879221,0.2514,-1.0064,-0.0521,-7.0732,33.6585,12.4390
1595879221,0.4066,-1.0598,-0.1351,-6.2805,30.0000,5.3659
1595879221,0.4840,-1.0629,-0.1142,-4.8171,42.3780,-0.4878
1595879221,0.3820,-0.9932,-0.0424,0.4878,63.1707,-7.8049
1595879221,0.2211,-0.9318,-0.0331,2.7439,85.0610,-9.3293
1595879221,0.2726,-1.0334,-0.0306,-2.9878,86.1585,-7.0122
1595879221,0.4504,-1.0557,0.0117,-7.0732,66.8902,-13.2317
1595879221,0.4423,-0.9554,0.0231,-1.4634,52.9268,-14.8780
1595879221,0.3072,-0.9253,0.0392,-1.4634,57.5610,-14.3902
1595879221,0.2253,-0.9272,0.0615,-6.2195,63.5366,-17.5000
1595879221,0.2245,-0.8967,0.0640,-7.1341,56.7073,-20.0000
1595879221,0.2602,-0.8867,0.0270,-7.0732,40.7317,-20.6098
1595879221,0.3068,-0.9107,-0.0083,-7.7439,30.5488,-20.7317
1595879221,0.4285,-0.8944,-0.0510,-2.0122,35.7317,-17.0732
1595879221,0.6227,-0.9218,-0.0551,9.2683,57.5000,-9.6951
1595879221,0.6475,-0.9956,-0.0071,14.7561,88.1707,-4.2683
1595879221,0.5246,-1.0099,0.0530,17.4390,115.7927,0.7927
1595879221,0.3361,-1.0068,0.1286,22.6220,135.5488,3.9024
1595879221,0.2089,-0.9692,0.2968,28.1707,142.2561,1.0976
1595879221,0.3370,-0.8949,0.4008,38.9634,138.9024,-3.9634
1595879221,0.5007,-0.9259,0.3502,44.0854,136.0366,-13.5976
1595879221,0.3191,-0.8954,0.2330,37.8049,133.5366,-27.9878
1595879221,0.0642,-0.7754,0.1092,33.1707,130.9146,-34.2073
1595879221,0.1754,-0.8300,0.0950,32.3780,125.1829,-24.3293
1595879221,0.3718,-0.8543,0.1927,32.9878,116.6463,-15.0000
1595879221,0.3702,-0.7949,0.1871,36.8293,122.2561,-9.0854
1595879221,0.2068,-0.7977,0.1453,35.6707,155.9756,-5.6098
1595879221,0.1213,-0.8363,0.1409,29.1463,183.9025,-1.1585
1595879221,0.1315,-0.8504,0.1472,27.9878,187.9268,2.8659
1595879221,0.1091,-0.8361,0.1829,28.4146,176.2805,6.7073
1595879221,0.0606,-0.8145,0.2138,27.0732,164.0854,10.7927
1595879221,0.1022,-0.8589,0.2277,23.2927,155.9756,15.8537
1595879221,0.1568,-0.8897,0.2257,19.7561,144.5122,18.4146
1595879221,0.1580,-0.8875,0.2252,15.9146,129.8171,19.8780
1595879221,0.1961,-0.8977,0.2521,12.4390,116.5244,20.0610
1595879221,0.2848,-0.9182,0.2673,10.4878,103.9024,22.2561
1595879221,0.2787,-0.9225,0.2732,11.4024,94.9390,22.6829
1595879221,0.2640,-0.8906,0.2670,11.5854,93.9634,21.3415
1595879221,0.2474,-0.8748,0.2277,11.1585,94.2683,19.6951
1595879221,0.2075,-0.8935,0.1573,12.1341,92.5610,14.3293
1595879221,0.2717,-0.9844,0.2238,11.5244,89.3293,10.6098
1595879221,0.4052,-1.0400,0.3024,15.0610,83.4146,5.7317
1595879221,0.2425,-0.9290,0.2740,18.1707,81.6463,-3.5976
1595879221,0.0681,-0.8688,0.2029,15.6098,83.9024,-5.6098
1595879221,0.1032,-0.9132,0.2487,13.0488,79.3293,-3.4756
1595879221,0.2208,-0.9479,0.2180,14.2073,66.6463,-6.1585
1595879221,0.2621,-0.9559,0.1771,16.3415,62.2561,-8.9634
1595879221,0.2079,-0.9549,0.2148,17.8659,79.0854,-7.1341
1595879221,0.1594,-0.9324,0.1970,16.7683,103.9024,-3.9024
1595879221,0.0491,-0.9153,0.2200,13.7195,116.5244,-1.7073
1595879221,0.0476,-0.9127,0.2361,10.3659,109.0244,-0.9756
1595879221,0.1207,-0.9398,0.2774,10.7317,87.9878,-0.9146
1595879221,0.2192,-0.9431,0.3585,12.1951,71.8902,0.5488
1595879221,0.1569,-0.8232,0.3010,17.0122,74.4512,3.5366
1595879221,0.0185,-0.8873,0.3694,14.0244,87.1951,3.4146
1595879221,0.1606,-1.0012,0.4188,11.5854,86.0976,2.9268
1595879221,0.2269,-0.8156,0.2549,20.0610,77.0122,4.2073
1595879221,0.0568,-0.7678,0.1447,14.6951,86.8902,5.7317
1595879221,-0.0119,-0.8820,0.2796,5.1220,95.1220,5.8537
1595879221,0.0578,-0.9831,0.4484,3.3537,81.4634,5.7927
1595879221,0.2153,-0.8915,0.2893,6.0976,63.5366,8.2317
1595879221,0.1474,-0.8528,0.2086,5.1829,72.0122,12.1951
1595879221,0.0276,-0.9166,0.2792,-2.7439,92.9878,12.0732
1595879221,0.0082,-0.9338,0.3497,-3.1707,91.7073,10.1829
1595879221,0.0930,-0.9343,0.3557,-0.8537,74.3902,13.2927
1595879221,0.0664,-0.9503,0.3792,-1.4634,65.1220,15.3049
1595879221,0.0511,-0.9877,0.4024,-0.4878,65.9146,15.4878
1595879221,0.0700,-1.0012,0.3961,3.9634,63.6585,16.0366
1595879221,0.0751,-0.9906,0.3936,7.4390,57.8659,16.2195
1595879221,0.0451,-0.9839,0.3371,8.9634,53.7805,16.0976
1595879221,0.0159,-0.9927,0.2753,9.6341,47.6220,15.4268
1595879221,-0.0634,-1.0034,0.2935,10.0000,41.1585,16.0366
1595879221,-0.0444,-1.0296,0.2950,7.6829,29.7561,19.6341
1595879221,0.0151,-1.0668,0.2958,5.6707,11.8902,20.4268
1595879221,0.0474,-1.0969,0.2916,4.0244,-4.4512,19.6951
1595879221,0.0845,-1.0970,0.2591,3.2317,-11.3415,20.9756
1595879221,0.0829,-1.0682,0.2438,5.4878,-9.0854,21.2805
1595879221,0.0726,-1.0363,0.2343,6.3415,-0.9756,22.6829
1595879221,0.0546,-1.0022,0.2202,7.3780,9.2683,24.6341
1595879221,0.0452,-0.9766,0.2126,7.0122,18.1098,25.4268
1595879221,0.0479,-0.9616,0.2213,6.0366,22.3171,24.5122
1595879221,0.0424,-0.9551,0.2314,3.5366,21.8902,23.0488
1595879221,0.0225,-0.9636,0.2488,-0.1829,18.4756,21.3415
1595879221,0.0488,-1.0009,0.2580,-1.7683,13.5366,19.4512
1595879221,0.0967,-1.0129,0.2795,-0.1829,11.8293,19.0854
1595879221,0.0922,-0.9746,0.2758,-0.4878,15.3659,18.9634
1595879221,0.0639,-0.9297,0.2515,-2.6220,20.7317,16.7073
1595879222,0.0463,-0.9073,0.2103,-1.3415,23.7805,13.8415
1595879222,0.0583,-0.9070,0.1671,0.4878,26.3415,13.5976
1595879222,0.0615,-0.9020,0.1487,-0.9756,27.5000,14.4512
1595879222,0.0312,-0.8829,0.1466,-4.0854,26.2805,15.2439
1595879222,0.0157,-0.8983,0.1659,-5.6098,24.4512,13.9634
1595879222,0.0549,-0.9208,0.1468,-5.9756,20.4878,14.2683
1595879222,0.1465,-0.9454,0.1596,-6.3415,18.8415,15.4268
1595879222,0.1663,-0.9719,0.1667,-6.5854,23.8415,13.9634
1595879222,0.0787,-0.9028,0.1714,-8.0488,33.9634,14.2073
1595879222,-0.0002,-0.8392,0.1501,-8.4756,39.9390,15.3049
1595879222,0.0565,-0.8658,0.1060,-9.8780,37.1341,17.3171
1595879222,0.0960,-0.8740,0.0945,-12.7439,35.2439,17.9268
1595879222,0.0419,-0.8594,0.0976,-15.6098,35.7317,16.0976
1595879222,-0.0420,-0.8689,0.0924,-19.1463,35.4878,15.8537
1595879222,-0.0134,-0.9406,0.1277,-22.8659,27.5000,18.2927
1595879222,0.1310,-1.0335,0.1594,-24.2073,14.8780,19.3293
1595879222,0.1627,-0.9691,0.1680,-19.8780,14.8171,19.0854
1595879222,0.1364,-0.9246,0.1588,-16.2805,26.2805,21.3415
1595879222,0.1335,-0.9425,0.1488,-15.8537,40.6707,21.5854
1595879222,0.0859,-0.9046,0.1222,-15.2439,53.2927,20.3049
1595879222,0.0140,-0.8808,0.0957,-14.6951,63.8415,18.1098
1595879222,-0.0305,-0.8993,0.0845,-16.0976,70.6098,17.6220
1595879222,-0.0615,-0.9222,0.0932,-18.9024,72.2561,18.4146
1595879222,-0.1036,-0.9420,0.1204,-22.2561,70.6707,18.0488
1595879222,-0.1115,-0.9719,0.1396,-26.0976,66.1585,17.4390
1595879222,-0.0781,-0.9802,0.1271,-29.6951,56.7073,17.1341
1595879222,-0.0536,-0.9653,0.1314,-32.8659,43.5976,15.1220
1595879222,-0.0227,-0.9335,0.1487,-36.4634,27.9268,12.7439
1595879222,0.0470,-0.8961,0.1269,-40.0610,14.7561,12.6829
1595879222,0.1783,-0.9138,0.1334,-43.5366,10.2439,11.0366
1595879222,0.1882,-0.9064,0.1854,-45.1220,14.5122,5.8537
1595879222,0.0978,-0.8524,0.1954,-45.3049,25.3659,3.9634
1595879222,0.0395,-0.8454,0.1910,-45.4878,40.4878,2.5610
1595879222,0.0328,-0.8549,0.1806,-45.1829,49.7561,-1.6463
1595879222,0.0056,-0.8541,0.1801,-45.0000,56.5244,-5.8537
1595879222,-0.0451,-0.8701,0.1901,-45.2439,64.4512,-9.4512
1595879222,-0.0873,-0.8973,0.1819,-46.0366,69.7561,-12.3780
1595879222,-0.0992,-0.9468,0.2083,-47.5000,69.5732,-15.0610
1595879222,-0.0999,-0.9950,0.2482,-49.4512,62.8659,-18.3537
1595879222,-0.1099,-1.0028,0.2755,-50.8537,52.5610,-20.3659
1595879222,-0.0986,-0.9969,0.2825,-50.6707,44.5122,-21.5244
1595879222,-0.0925,-0.9852,0.2867,-49.3293,40.8537,-23.9024
1595879222,-0.1061,-0.9901,0.2922,-47.5000,39.9390,-26.9512
1595879222,-0.1308,-1.0089,0.3027,-44.9390,39.6341,-30.0000
1595879222,-0.1580,-1.0178,0.3170,-42.1341,38.2317,-31.4024
1595879222,-0.1890,-1.0211,0.3318,-38.9634,36.0976,-32.6829
1595879222,-0.2198,-1.0015,0.3173,-34.7561,34.1463,-34.8780
1595879222,-0.2195,-0.9932,0.2914,-32.0732,29.6951,-37.4390
1595879222,-0.1965,-1.0153,0.3080,-31.5854,18.7195,-41.4634
1595879222,-0.1892,-1.0079,0.3278,-30.7317,2.5610,-44.8171
1595879222,-0.1996,-0.9751,0.3507,-29.2683,-10.9756,-44.2073
1595879222,-0.1473,-0.9650,0.3448,-27.1341,-18.2927,-44.2683
1595879222,-0.0914,-0.9565,0.3351,-22.1951,-16.3415,-46.0366
1595879222,-0.0989,-0.9377,0.3436,-16.2805,-6.4634,-48.1098
1595879222,-0.1230,-0.9343,0.3575,-11.4024,6.2805,-49.7561
1595879222,-0.1573,-0.9169,0.3627,-5.9756,18.2317,-52.0122
1595879222,-0.1959,-0.8865,0.3475,-1.4024,27.3171,-53.9024
1595879222,-0.2134,-0.8713,0.3228,1.2195,32.9878,-55.4268
1595879222,-0.1839,-0.8785,0.3209,2.4390,33.4146,-57.0122
1595879222,-0.1564,-0.8976,0.3414,2.7439,28.4756,-58.2317
1595879222,-0.1664,-0.9232,0.3778,2.5610,21.2805,-57.2561
1595879222,-0.1945,-0.9232,0.4077,4.3293,15.4268,-53.7805
1595879222,-0.1891,-0.9203,0.4242,7.0732,13.4146,-50.6098
1595879222,-0.1616,-0.9291,0.4250,9.8780,13.7805,-49.5122
1595879222,-0.1387,-0.9263,0.4270,13.2317,15.8537,-49.5122
1595879222,-0.1263,-0.9114,0.4233,17.8659,20.7317,-49.2683
1595879222,-0.1281,-0.9027,0.4139,21.7073,26.2195,-47.5000
1595879222,-0.1196,-0.8915,0.4026,24.5732,29.7561,-45.4878
1595879222,-0.1074,-0.8772,0.3837,26.6463,30.0000,-44.3293
1595879222,-0.0893,-0.8640,0.3609,27.5000,26.5244,-42.8659
1595879222,-0.0657,-0.8663,0.3648,27.3171,21.4024,-40.4268
1595879222,-0.0444,-0.8632,0.3731,27.3171,15.5488,-37.1341
1595879222,-0.0374,-0.8429,0.3735,28.8415,12.5000,-32.6829
1595879222,-0.0381,-0.8251,0.3653,30.3659,12.9268,-28.5976
1595879222,-0.0112,-0.8185,0.3504,31.0366,14.3293,-24.8780
1595879222,0.0255,-0.8182,0.3409,31.4634,15.7317,-20.9146
1595879222,0.0551,-0.8112,0.3367,32.6829,17.8049,-17.1951
1595879222,0.0669,-0.8029,0.3293,33.9024,20.6707,-12.8659
1595879222,0.0741,-0.7986,0.3152,34.2683,23.8415,-8.5976
1595879222,0.0888,-0.8038,0.3065,34.2073,25.6098,-5.1829
1595879222,0.0964,-0.8060,0.3011,33.9634,26.5854,-1.7683
1595879222,0.1017,-0.8107,0.2911,33.5366,27.3171,2.1951
1595879222,0.1265,-0.8189,0.2808,32.9268,28.0488,5.4268
1595879222,0.1429,-0.8389,0.2788,32.9878,28.8415,7.5610
1595879222,0.1545,-0.8546,0.2831,32.0122,29.0854,9.3293
1595879222,0.1569,-0.8652,0.2856,32.0122,29.8171,10.9146
1595879222,0.1703,-0.8815,0.2880,32.1341,30.0610,12.1341
1595879222,0.1724,-0.8978,0.2949,32.3780,29.8171,12.8659
1595879222,0.1743,-0.9139,0.2800,31.7073,29.2683,12.7439
1595879222,0.1765,-0.9248,0.2614,30.9756,27.5000,11.6463
1595879222,0.1783,-0.9350,0.2452,30.6707,24.1463,9.6951
1595879222,0.1711,-0.9399,0.2226,29.8171,20.4878,8.1707
1595879222,0.1763,-0.9421,0.2088,28.8415,16.2805,6.8293
1595879222,0.1907,-0.9445,0.2002,28.5366,11.8293,4.8171
1595879222,0.1835,-0.9394,0.1808,28.8415,9.3902,1.6463
1595879222,0.1706,-0.9465,0.1601,26.4634,7.1951,-1.7073
1595879223,0.1744,-0.9578,0.1380,22.8049,4.3902,-5.5488
1595879223,0.2009,-0.9841,0.1357,20.7927,1.5244,-10.6707
1595879223,0.2390,-1.0344,0.1415,20.4268,-0.5488,-14.9390
1595879223,0.2454,-1.0845,0.1492,20.9756,0.7317,-17.1951
1595879223,0.2352,-1.1123,0.1570,20.6098,4.2683,-18.4146
1595879223,0.2467,-1.1404,0.1863,19.4512,5.4878,-19.6951
1595879223,0.2684,-1.1503,0.2191,18.1707,2.6829,-22.0122
1595879223,0.2742,-1.1508,0.2376,16.7073,-0.7317,-23.5366
1595879223,0.2684,-1.1574,0.2486,14.2683,-1.4024,-24.9390
1595879223,0.2700,-1.1603,0.2493,12.5610,0.0000,-27.5610
1595879223,0.2607,-1.1406,0.2462,10.8537,2.3780,-29.9390
1595879223,0.2471,-1.1212,0.2368,10.0000,5.7317,-33.2927
1595879223,0.2280,-1.1026,0.2215,9.2073,10.3049,-37.5610
1595879223,0.2051,-1.1002,0.2124,7.6829,14.8780,-41.0976
1595879223,0.1927,-1.0996,0.2202,5.5488,16.8293,-44.5732
1595879223,0.1891,-1.0819,0.2394,4.3902,16.1585,-47.6220
1595879223,0.1813,-1.0568,0.2648,3.7195,15.3049,-50.4268
1595879223,0.1815,-1.0309,0.2886,3.4756,15.3659,-53.9634
1595879223,0.1840,-1.0189,0.3146,4.2073,17.0732,-57.6220
1595879223,0.1937,-1.0089,0.3340,6.2195,19.6951,-61.2805
1595879223,0.2128,-1.0019,0.3293,9.8171,22.8659,-65.3659
1595879223,0.2122,-1.0062,0.3315,13.5366,26.0366,-70.0610
1595879223,0.1967,-1.0117,0.3321,16.5854,28.3537,-73.9024
1595879223,0.1833,-1.0092,0.3353,20.6098,30.8537,-76.8293
1595879223,0.1688,-1.0065,0.3318,25.4268,33.7195,-78.8415
1595879223,0.1547,-1.0044,0.3251,29.8171,36.5854,-79.9390
1595879223,0.1404,-0.9903,0.3209,34.4512,38.4146,-80.7317
1595879223,0.1311,-0.9788,0.3185,38.4146,38.9634,-81.5244
1595879223,0.1393,-0.9588,0.3187,42.8049,38.2927,-81.5854
1595879223,0.1440,-0.9270,0.3135,48.4756,36.0976,-80.8537
1595879223,0.1556,-0.9393,0.3228,51.4634,30.7317,-79.5122
1595879223,0.1855,-0.9824,0.3256,53.3537,22.1951,-77.9268
1595879223,0.1956,-0.9841,0.3182,57.3171,13.4146,-74.6341
1595879223,0.1921,-0.9673,0.3197,58.7805,4.0244,-71.6463
1595879223,0.2145,-0.9424,0.3160,58.9024,-6.9512,-70.9756
1595879223,0.2443,-0.9088,0.2963,60.6098,-17.0122,-70.3659
1595879223,0.2694,-0.8867,0.2853,60.6707,-24.7561,-70.9756
1595879223,0.2964,-0.8602,0.2872,59.7561,-30.7927,-73.2317
1595879223,0.3223,-0.8102,0.2759,60.6098,-34.3293,-74.6341
1595879223,0.3401,-0.7779,0.2761,60.6098,-35.1829,-75.1829
1595879223,0.3608,-0.7888,0.2866,58.6585,-34.7561,-76.8293
1595879223,0.3564,-0.7941,0.2799,57.7439,-33.1707,-78.1098
1595879223,0.3561,-0.7853,0.2575,55.7317,-32.4390,-76.4024
1595879223,0.3712,-0.7662,0.2465,52.6220,-34.8171,-75.0000
1595879223,0.3874,-0.7409,0.2466,49.3293,-41.0976,-74.4512
1595879223,0.4114,-0.7144,0.2328,45.5488,-49.0244,-72.6220
1595879223,0.4427,-0.7033,0.2270,41.2805,-54.6341,-70.7317
1595879223,0.4761,-0.6981,0.2400,36.5244,-57.8049,-69.2073
1595879223,0.4988,-0.6735,0.2490,33.2317,-57.8049,-66.7073
1595879223,0.5193,-0.6469,0.2715,32.1951,-51.4634,-63.5976
1595879223,0.5399,-0.6429,0.2809,31.0976,-41.7073,-61.1585
1595879223,0.5534,-0.6699,0.2756,28.0488,-31.5244,-59.7561
1595879223,0.5540,-0.6891,0.2954,24.1463,-24.5732,-59.6951
1595879223,0.5474,-0.6908,0.3212,22.5610,-20.7927,-58.7805
1595879223,0.5211,-0.6747,0.3177,23.3537,-17.6220,-56.0976
1595879223,0.4897,-0.6625,0.3077,22.9878,-13.1707,-52.1341
1595879223,0.4973,-0.6630,0.2988,20.4268,-12.3780,-50.2439
1595879223,0.5250,-0.6606,0.2971,18.8415,-15.2439,-48.6585
1595879223,0.5419,-0.6598,0.3060,18.2317,-17.3780,-46.4634
1595879223,0.5595,-0.6744,0.3228,17.2561,-17.3171,-44.5122
1595879223,0.5695,-0.6931,0.3364,17.4390,-15.7317,-42.2561
1595879223,0.5706,-0.6989,0.3438,17.2561,-14.6951,-40.3049
1595879223,0.5720,-0.6853,0.3463,16.4024,-16.0366,-38.9634
1595879223,0.5828,-0.6749,0.3433,15.1829,-18.4756,-38.1707
1595879224,0.5858,-0.6691,0.3512,13.5366,-20.3049,-37.1341
1595879224,0.6034,-0.6558,0.3665,4.6951,-18.9634,-33.4756
1595879224,0.6059,-0.7032,0.4338,-8.5976,-5.5488,-21.8902
1595879224,0.6108,-0.7079,0.4276,-9.0854,-3.7195,-20.1220
1595879224,0.6088,-0.8730,0.5588,-10.5488,19.5122,-4.8780
1595879224,0.5984,-0.9090,0.5887,-6.7683,21.5854,1.7683
1595879224,0.6065,-0.9200,0.6024,-2.8659,19.0244,9.8171
1595879224,0.6010,-0.8690,0.6284,0.8537,10.9146,14.2073
1595879224,0.5906,-0.8255,0.6132,3.2927,8.1707,13.9024
1595879224,0.5820,-0.7885,0.5905,4.9390,5.7927,10.9756
1595879224,0.5803,-0.7587,0.5663,5.8537,1.9512,5.9756
1595879224,0.5629,-0.7267,0.5652,7.4390,-3.7805,0.1829
1595879224,0.5399,-0.6880,0.5715,10.4878,-10.4878,-3.9634
1595879224,0.5316,-0.6642,0.5787,13.7805,-16.0366,-6.8293
1595879224,0.5816,-0.6698,0.5878,19.3293,-22.3780,-12.5610
1595879224,0.6075,-0.6725,0.5955,30.7927,-8.2927,-15.5488
1595879224,0.7018,-0.6734,0.5245,23.9024,-11.7683,-23.5976
1595879224,0.6841,-0.6330,0.5751,25.5488,-23.9024,-19.2073
1595879224,0.7383,-0.5759,0.6057,26.9512,-24.8171,-10.8537
1595879224,0.7918,-0.5665,0.6064,26.2195,-22.6829,-12.6220
1595879224,0.8156,-0.5491,0.6061,27.4390,-19.0854,-14.8171
1595879224,0.8197,-0.5027,0.5630,30.0000,-12.5000,-17.1341
1595879224,0.8238,-0.4374,0.4836,20.7317,-7.3780,-31.0366
1595879224,0.7387,-0.3293,0.4780,20.0610,-11.5244,-25.9756
1595879224,0.7695,-0.3115,0.4660,16.7683,-12.0732,-30.0000
1595879224,0.8017,-0.2811,0.4339,13.5366,-13.7805,-33.2317
1595879225,0.8079,-0.1545,0.4014,-11.8293,-26.0976,-42.9878
1595879225,0.7936,-0.1439,0.3174,-30.7927,-22.3171,-47.3171
1595879225,0.7886,-0.1247,0.2263,-41.1585,-33.4756,-46.7073
1595879225,0.7905,-0.1343,0.1845,-48.2927,-35.6098,-46.5244
1595879225,0.8148,-0.1238,0.1633,-54.3902,-35.9146,-46.4024
1595879225,0.8542,-0.1108,0.1383,-57.8049,-32.7439,-44.6341
1595879225,0.7765,-0.1273,0.1094,-72.0122,-13.0488,-37.2561
1595879225,0.7394,-0.1264,0.0756,-76.4024,-13.2317,-34.2683
1595879225,0.8383,-0.1820,-0.0043,-89.3902,-20.7317,-27.5000
1595879225,0.8675,-0.2075,-0.0067,-91.7073,-14.0854,-25.3049
1595879225,0.8064,-0.2428,-0.0354,-93.9024,30.8537,-16.7073
1595879225,0.7790,-0.4080,-0.0540,-96.7683,41.7073,3.8415
1595879225,0.8151,-0.4662,-0.0292,-96.8902,40.0610,10.4268
1595879225,0.7112,-0.5952,0.0286,-91.0976,70.2439,28.9634
1595879225,0.7253,-0.7187,0.0086,-85.6098,36.4024,33.1098
1595879225,0.5450,-0.8551,0.0650,-55.7927,111.8902,47.1951
1595879225,0.5389,-0.9609,0.1771,-49.6951,15.4268,59.0854
1595879225,0.5589,-1.0042,0.1697,-47.5000,23.1707,65.0000
1595879225,0.5145,-1.0166,0.1465,-44.2683,34.2073,70.3659
1595879225,0.3880,-1.2383,0.3149,-15.9756,92.3781,55.5488
1595879225,0.4155,-1.1100,0.3481,-11.2195,48.0488,16.8293
1595879225,0.3414,-0.8922,0.3615,-8.4146,16.3415,16.2805
1595879225,0.3858,-0.7988,0.3328,0.0610,23.5976,7.5000
1595879225,0.4755,-0.8336,0.3351,3.7805,29.2683,7.9268
1595879225,0.4338,-0.8618,0.3728,1.7683,20.6098,0.4268
1595879226,0.4141,-0.8652,0.3411,0.9756,-30.4268,6.2195
1595879226,0.4144,-0.8779,0.3420,1.6463,-32.4390,3.5366
1595879226,0.3807,-0.8458,0.2523,4.7561,-21.0976,-2.1341
1595879226,0.5533,-0.8693,0.2734,2.5000,-18.5366,0.4268
1595879226,0.5150,-0.8538,0.2749,3.8415,-6.8293,0.4268
1595879226,0.5350,-0.8166,0.2745,7.2561,-1.5244,-0.6098
1595879226,0.4029,-0.7839,0.2797,4.3902,40.3659,13.1707
1595879226,0.2612,-0.8743,0.4000,-0.2439,-10.3659,7.4390
1595879226,0.2231,-0.7841,0.3346,8.2927,-8.2317,3.1098
1595879226,0.2723,-0.8161,0.3303,7.6829,15.8537,5.0610
1595879226,0.3730,-0.8560,0.3286,14.3293,50.6707,8.9634
1595879226,0.3481,-0.8452,0.2846,13.1707,75.8537,11.4634
1595879226,0.2231,-0.8251,0.4149,2.3780,78.1707,6.4634
1595879226,0.4111,-0.8216,0.3992,-4.5122,-35.4878,0.3049
1595879226,0.2440,-0.8264,0.3746,12.0732,51.5244,3.4146
1595879226,0.2917,-0.8315,0.3898,8.4756,29.7561,1.4634
1595879227,0.2718,-0.8142,0.4067,3.2317,3.0488,0.8537
1595879227,0.1849,-0.7746,0.3658,2.5000,-10.1829,3.7805
1595879228,0.3935,-0.8571,0.3688,-5.5488,-35.6707,1.2805
1595879228,0.3463,-0.8376,0.3182,-7.8659,-39.3293,-1.9512
1595879228,0.2114,-0.8496,0.3195,6.2195,6.2805,14.0854
1595879228,0.3044,-0.8668,0.4514,3.5366,10.3049,3.1707
1595879228,0.2480,-0.8485,0.4481,2.1341,13.2927,-0.9146
1595879228,0.2816,-0.8420,0.4706,0.1220,11.2805,-2.9268
1595879228,0.3843,-0.8032,0.4155,-0.4268,1.2805,-3.7195
1595879228,0.3728,-0.8691,0.4568,0.4268,33.6585,4.3902
1595879228,0.2597,-0.7813,0.4178,1.9512,-3.9634,-1.2805
1595879228,0.2217,-0.8098,0.3737,1.7073,8.3537,1.4634
1595879228,0.2216,-0.8492,0.3892,-1.4024,7.8659,8.5976
1595879228,0.1842,-0.8418,0.4200,-3.0488,3.4146,9.6341
1595879228,0.2324,-0.8613,0.4597,0.7317,26.7683,3.4146
1595879228,0.2614,-0.8352,0.4663,-1.4024,3.5976,-3.8415
1595879228,0.1019,-0.7712,0.3372,-1.4634,3.7805,-2.5000
1595879228,0.2805,-0.8640,0.3278,-3.6585,28.3537,10.5488
1595879228,0.2371,-0.9031,0.4810,-6.3415,41.0366,7.7439
1595879228,0.1289,-0.8436,0.2460,-1.4634,35.7927,8.6585
1595879228,0.2143,-0.9819,0.3482,-5.4268,33.2927,6.0366
1595879228,0.0594,-0.8206,0.4670,-8.9634,69.0854,15.4878
1595879228,0.5851,-0.6911,-0.6204,-24.0854,-200.9146,-24.3902
1595879228,0.5767,-0.6859,-0.6761,-24.2073,-188.1707,-20.1220
1595879228,0.3836,-0.5894,-0.5605,-16.1585,-33.3537,5.6707
1595879228,0.4036,-0.6013,-0.6152,-10.7927,-24.7561,2.6220
1595879228,0.3202,-0.5969,-0.8683,-7.6220,-31.2805,-7.3171
1595879228,0.3790,-0.5748,-0.8836,-11.8293,-35.7317,-3.3537
1595879228,0.4131,-0.5681,-0.8895,-15.6098,-36.9512,-0.6707
1595879228,0.5013,-0.6740,-0.8929,-22.5000,-24.1463,2.9878
1595879228,0.2035,-0.6221,-0.7471,-20.7317,9.6341,-5.7317
1595879228,0.1407,-0.5956,-0.7884,-20.3659,7.1951,-2.9878
1595879228,0.3320,-0.6655,-0.7249,-25.4878,-2.8659,5.2439
1595879228,0.3805,-0.7286,-0.6602,-23.4756,2.1341,6.0976
1595879228,0.2621,-0.6738,-0.5834,23.7195,141.6463,33.1707
1595879228,0.1559,-0.8237,-0.5084,33.4146,165.0610,40.9756
1595879228,0.2532,-0.7112,-0.6417,42.6829,162.3171,40.1829
1595879228,0.2471,-0.7629,-0.6039,52.5610,180.4878,44.3902
1595879228,0.3613,-0.7609,-0.7170,64.8781,216.0976,47.9268
1595879228,0.0130,-0.8404,-0.6323,77.0732,246.2195,44.6951
1595879228,-0.2472,-0.7988,-0.7247,77.1951,142.5000,43.1707
1595879228,-0.1807,-0.8320,-0.6968,76.2805,92.6220,44.0854
1595879228,-0.0840,-0.8557,-0.6765,77.8659,56.7073,45.1829
1595879228,0.0602,-0.8927,-0.6383,81.0366,31.2195,46.7073
1595879228,0.2254,-0.9219,-0.6263,86.3415,10.6707,43.0488
1595879228,0.3110,-0.9077,-0.6626,94.7561,0.3049,38.8415
1595879228,0.2651,-0.8798,-0.6845,103.9024,-2.8659,35.5488
1595879228,0.1962,-0.8857,-0.6976,111.8902,-8.0488,31.3415
1595879228,0.1712,-0.9116,-0.7175,118.7195,-20.3049,28.7805
1595879228,0.1600,-0.9136,-0.7658,124.5732,-38.6585,26.7073
1595879228,0.2183,-0.9315,-0.8023,134.8781,-84.3902,23.8415
1595879228,0.3546,-0.8694,-0.7111,152.0122,-124.5122,20.1220
1595879228,0.5242,-0.9779,-0.7184,166.2805,-134.7561,12.8049
1595879228,0.4211,-0.9095,-0.7005,166.3415,-134.1463,13.8415
1595879228,0.4250,-0.8679,-0.6871,161.3415,-141.4634,13.5366
1595879228,0.4787,-0.7766,-0.5828,146.2195,-165.3659,14.1463
1595879228,0.5710,-0.7446,-0.5231,138.1707,-176.9512,14.1463
1595879228,0.6458,-0.7286,-0.4725,130.1219,-182.3781,13.7195
1595879228,0.5980,-0.7121,-0.4259,119.9390,-164.7561,14.8780
1595879228,0.5407,-0.6243,-0.3688,111.3415,-132.8049,20.9756
1595879228,0.4667,-0.6432,-0.3367,107.3171,-118.6585,24.1463
1595879228,0.4703,-0.6444,-0.2795,102.3781,-116.9512,27.2561
1595879228,0.5231,-0.6265,-0.2996,99.8781,-126.9512,29.8780
1595879228,0.5678,-0.6251,-0.3374,96.3415,-132.7439,32.4390
1595879228,0.6413,-0.6636,-0.3538,94.2073,-128.9024,34.6951
1595879228,0.6264,-0.6766,-0.3594,92.6829,-122.3171,36.5854
1595879229,0.5480,-0.6578,-0.3433,93.4756,-108.4756,37.5610
1595879229,0.5095,-0.6553,-0.3097,94.0854,-94.6341,41.5244
1595879229,0.5143,-0.6566,-0.2876,93.4146,-87.3171,45.4878
1595879229,0.4949,-0.6824,-0.2761,94.0244,-80.5488,46.4634
1595879229,0.4586,-0.7051,-0.2684,94.2073,-72.0122,48.0488
1595879229,0.4557,-0.7121,-0.2542,95.9146,-64.9390,49.5122
1595879229,0.4780,-0.7172,-0.2711,96.7683,-59.8781,51.0366
1595879229,0.4512,-0.7320,-0.2952,96.7073,-52.1341,49.5122
1595879229,0.3633,-0.7504,-0.3010,96.2805,-40.4268,49.0854
1595879229,0.2691,-0.7610,-0.2913,91.8902,-32.8049,51.2805
1595879229,0.2281,-0.7854,-0.2571,87.3781,-35.8537,51.8293
1595879229,0.1998,-0.8096,-0.2262,84.4512,-48.5976,51.5244
1595879229,0.1403,-0.8392,-0.1678,80.5488,-69.8171,52.3781
1595879229,0.1365,-0.8570,-0.1560,76.0366,-98.1098,52.8049
1595879229,0.1849,-0.8884,-0.1678,71.7073,-127.0122,50.5488
1595879229,0.2835,-0.9099,-0.1697,66.9512,-152.9878,47.0122
1595879229,0.3380,-0.9377,-0.1798,63.0488,-170.9756,42.6829
1595879229,0.3400,-0.9471,-0.1934,59.2073,-177.4390,38.4146
1595879229,0.3431,-0.9532,-0.2089,55.3659,-176.2805,34.2683
1595879229,0.3618,-0.9633,-0.2119,50.1220,-173.9634,30.1220
1595879229,0.3777,-0.9565,-0.1908,44.2073,-171.1585,25.2439
1595879229,0.3555,-0.9571,-0.1840,39.9390,-166.2195,20.9146
1595879229,0.3423,-0.9812,-0.1683,34.6951,-160.1219,17.6829
1595879229,0.3420,-0.9918,-0.1333,29.0244,-157.4390,13.4756
1595879229,0.3046,-0.9846,-0.0878,24.4512,-157.0122,9.1463
1595879229,0.2640,-0.9844,-0.0790,20.1829,-158.1707,5.3049
1595879229,0.2583,-0.9989,-0.0842,16.0976,-159.3902,1.7683
1595879229,0.2828,-0.9911,-0.0848,12.3780,-162.8049,-2.7439
1595879229,0.2963,-0.9773,-0.0663,10.1220,-165.6707,-7.7439
1595879229,0.3110,-0.9884,-0.0500,8.5976,-166.0976,-11.1585
1595879229,0.3138,-1.0019,-0.0534,6.9512,-163.9024,-14.2073
1595879229,0.3199,-1.0114,-0.0341,5.3049,-161.4024,-17.4390
1595879229,0.3206,-1.0140,0.0035,4.9390,-160.0610,-19.6951
1595879229,0.3013,-1.0080,0.0256,5.2439,-159.8171,-20.6707
1595879229,0.3101,-0.9974,0.0211,5.7927,-159.8781,-21.6463
1595879229,0.3350,-0.9944,0.0196,6.5854,-160.6098,-21.9512
1595879229,0.3579,-0.9875,0.0299,7.9268,-160.0610,-22.8659
1595879229,0.3398,-0.9854,0.0307,9.2683,-156.3415,-22.8659
1595879229,0.2941,-0.9895,0.0242,9.4512,-148.6585,-22.7439
1595879229,0.2622,-0.9766,0.0275,10.6707,-138.6585,-22.4390
1595879229,0.2344,-0.9498,0.0023,14.2683,-128.5976,-20.7927
1595879229,0.2059,-0.9410,-0.0267,14.8780,-122.3781,-17.5610
1595879229,0.2145,-0.9446,-0.0297,14.0244,-122.9268,-14.2073
1595879229,0.2656,-0.9408,-0.0278,13.8415,-128.6585,-11.5854
1595879230,0.3024,-0.9360,-0.0355,14.0244,-132.7439,-10.0000
1595879230,0.3359,-0.9282,-0.0228,13.7805,-132.0122,-8.0488
1595879230,0.3665,-0.9086,0.0266,14.6341,-130.3659,-5.7317
1595879230,0.3597,-0.8807,0.0407,16.7073,-127.6220,-4.0244
1595879230,0.3536,-0.8567,0.0290,16.8293,-122.1951,-2.5000
1595879230,0.3641,-0.8512,0.0244,15.7317,-117.4390,-1.6463
1595879230,0.3851,-0.8604,0.0170,14.6951,-114.5732,-0.2439
1595879230,0.4040,-0.8688,0.0117,14.8780,-113.6585,0.4268
1595879230,0.4279,-0.8917,-0.0185,19.5122,-106.8293,1.9512
1595879230,0.4440,-0.9023,-0.0428,23.0488,-102.3171,4.1463
1595879230,0.4589,-0.9211,-0.0881,25.9756,-97.8659,6.6463
1595879230,0.4811,-0.9379,-0.1263,28.7805,-94.1463,8.4756
1595879230,0.5112,-0.9614,-0.1637,32.6220,-88.6585,9.9390
1595879230,0.5435,-1.0037,-0.1741,36.7073,-79.7561,12.0122
1595879230,0.5907,-1.0341,-0.1735,42.0732,-70.0000,14.6951
1595879230,0.6077,-1.0474,-0.1918,48.6585,-57.3781,17.3780
1595879230,0.5721,-1.0484,-0.2111,53.5976,-43.4146,20.4268
1595879230,0.5115,-1.0385,-0.2152,54.6341,-36.0976,23.1707
1595879230,0.5247,-1.0187,-0.2490,52.3781,-46.0976,25.0000
1595879230,0.5331,-1.0039,-0.2681,50.9146,-53.0488,24.6341
1595879230,0.5692,-0.9702,-0.2581,45.6707,-74.5122,17.2561
1595879230,0.5567,-0.8356,-0.1447,51.8293,-77.1341,6.2195
1595879230,0.3670,-0.9673,0.2251,-4.2073,106.8902,-7.7439
1595879230,0.1906,-1.1718,0.2906,17.6829,2.3780,37.9268
1595879230,0.3303,-1.0906,0.3199,8.5976,-42.0122,64.4512
1595879230,0.3163,-0.8726,0.3423,0.9756,-31.5854,63.0488
1595879230,0.3720,-0.7579,0.2294,4.9390,-21.5244,10.1829
1595879230,0.3663,-0.7465,0.2205,0.6707,-24.8780,7.1951
1595879230,0.3900,-0.7492,0.2138,-2.6220,-30.7317,5.9146
1595879230,0.4886,-0.7663,0.1980,-6.5244,-34.2073,4.0854
1595879230,0.5154,-0.7758,0.1932,-7.3780,-26.8902,2.5610
1595879230,0.5146,-0.7885,0.1863,-8.1707,2.2561,0.0000
1595879230,0.4474,-0.7701,0.1992,-10.6098,31.5244,-5.7927
1595879230,0.4526,-0.7581,0.1905,-11.4634,34.5122,-6.9512
1595879230,0.4783,-0.7458,0.1785,-12.4390,34.6341,-9.6951
1595879230,0.4929,-0.7341,0.1630,-13.2317,36.8902,-13.1098
1595879230,0.4869,-0.7223,0.1500,-14.8171,42.4390,-15.7317
1595879231,0.4811,-0.7195,0.1401,-16.2805,48.8415,-17.8659
1595879231,0.4860,-0.7156,0.1284,-17.6829,54.0854,-20.1220
1595879231,0.5086,-0.7296,0.1240,-19.2683,58.2927,-22.7439
1595879231,0.5256,-0.7502,0.1132,-21.5244,63.2927,-25.7927
1595879231,0.5203,-0.7453,0.0941,-23.1707,68.9634,-28.1707
1595879231,0.5134,-0.7440,0.0764,-24.0244,75.8537,-30.3049
1595879231,0.5245,-0.7634,0.0736,-25.3659,82.8659,-33.4756
1595879231,0.5225,-0.7589,0.0696,-26.1585,87.3781,-36.5854
1595879231,0.5087,-0.7510,0.0501,-25.9146,92.2561,-39.4512
1595879231,0.4561,-0.8122,0.0179,-28.7195,106.7073,-47.2561
1595879231,0.4471,-0.8132,0.0119,-29.4512,106.0366,-49.8171
1595879231,0.4507,-0.8958,-0.0933,-39.2073,100.3049,-58.2317
1595879231,0.3525,-1.0358,-0.1473,-37.6829,109.1463,-55.9756
1595879231,0.3196,-1.0781,-0.1550,-36.6463,116.0976,-55.4878
1595879231,0.3087,-1.1033,-0.1428,-34.3293,118.6585,-55.5488
1595879231,0.3180,-1.1059,-0.1166,-33.4756,116.4634,-55.3049
1595879231,0.3434,-1.1383,-0.0839,-34.8780,111.5244,-55.3049
1595879231,0.4005,-1.1578,-0.0569,-35.9146,104.1463,-55.7317
1595879231,0.4423,-1.1428,-0.0559,-34.6951,100.0610,-56.6463
1595879231,0.4535,-1.1077,-0.0399,-30.4878,100.9146,-58.5366
1595879231,0.4058,-1.0991,-0.0511,-28.1098,112.1951,-61.2805
1595879231,0.3541,-1.1226,-0.0474,-29.4512,128.4756,-62.9268
1595879231,0.3181,-1.0570,-0.1330,-19.4512,156.7073,-61.8293
1595879231,0.2576,-0.8610,0.0007,-6.0976,160.9756,-58.5366
1595879231,0.1153,-0.9172,-0.1191,-13.1707,178.6585,-59.6341
1595879231,0.1069,-0.8900,-0.0338,-10.4878,172.6829,-57.9878
1595879231,0.1370,-0.8918,0.0634,-6.4024,165.3049,-53.7805
1595879231,0.1314,-0.8900,0.1295,-3.5976,163.9634,-49.0854
1595879231,0.0980,-0.8826,0.1277,-0.7927,165.7927,-44.2073
1595879231,0.0663,-0.9014,0.0997,1.4634,164.5732,-41.2805
1595879231,0.0947,-0.9264,0.1012,2.1951,155.7317,-39.6341
1595879231,0.2067,-0.8782,0.0808,5.1829,139.1463,-37.2561
1595879231,0.3537,-0.9088,0.0240,4.0244,124.3293,-35.9756
1595879231,0.3887,-0.9639,-0.0406,-2.1951,118.0488,-35.7927
1595879231,0.2379,-0.9867,-0.1095,-7.3780,114.8781,-33.4756
1595879231,0.0696,-1.0176,0.1308,-7.2561,89.8171,-7.5610
1595879231,0.1647,-1.0254,0.1591,-9.6951,72.5610,-9.6341
1595879231,0.2310,-1.0251,0.1482,-11.7683,54.3293,-11.6463
1595879231,0.2551,-1.0071,0.0961,-14.0854,44.2073,-13.9634
1595879231,0.3423,-1.0332,0.0748,-17.5000,37.7439,-15.0610
1595879231,0.4011,-1.0736,0.1075,-21.2805,32.3780,-14.6341
1595879231,0.0912,-0.9827,0.2310,-20.8537,60.6707,-6.9512
1595879231,0.1889,-0.9775,0.2219,-23.2317,60.0610,-0.9756
1595879231,0.1908,-0.9935,0.2311,-26.6463,58.4146,-0.6098
1595879231,0.1779,-0.9763,0.2672,-25.8537,51.2195,-0.6707
1595879231,0.1946,-0.9933,0.3077,-24.7561,41.7683,-0.4268
1595879231,0.2380,-1.0134,0.3599,-24.5122,29.6341,-1.8293
1595879231,0.2438,-0.9815,0.3425,-22.3171,19.3293,-2.0732
1595879231,0.2618,-0.9678,0.3225,-21.2805,20.1220,-1.7073
1595879231,0.2518,-0.9554,0.2909,-22.9878,26.4024,-2.5000
1595879231,0.2496,-0.9507,0.2795,-24.5122,33.1098,-2.8049
1595879231,0.2298,-0.9372,0.3246,-23.7805,42.0122,-2.1341
1595879231,0.1569,-0.9054,0.3501,-21.7683,48.9634,-1.2195
1595879231,0.1037,-0.8963,0.3345,-22.1341,46.6463,-0.3049
1595879231,0.1864,-0.9127,0.3451,-23.6585,31.0976,-0.7317
1595879231,0.2687,-0.9196,0.3448,-22.9268,13.4146,-1.8293
1595879231,0.2473,-0.9257,0.3101,-20.0000,9.2683,-1.9512
1595879231,0.2667,-0.9233,0.3470,-19.1463,15.6707,1.0366
1595879231,0.3168,-0.8797,0.3696,-14.7561,21.4634,5.0000
1595879231,0.2794,-0.9473,0.4206,-12.2561,31.7073,3.5366
1595879231,0.3256,-0.9684,0.5005,-10.6098,36.4024,0.7317
1595879231,0.3065,-0.9113,0.4886,-5.1220,28.1707,-0.9146
1595879231,0.2675,-0.8814,0.4493,-6.0366,20.1829,-2.3780
1595879231,0.2883,-0.8867,0.4056,-7.3780,10.0000,-3.4146
1595879231,0.3190,-0.8909,0.3557,-7.3780,1.4024,-5.0610
1595879231,0.3104,-0.8875,0.3340,-5.3049,0.8537,-5.0000
1595879231,0.3159,-0.9102,0.3600,-4.4512,5.9146,-1.9512
1595879231,0.3156,-0.9044,0.4099,0.7927,12.6220,-0.3659
1595879231,0.2906,-0.8935,0.4283,6.1585,23.1098,1.9512
1595879231,0.3126,-0.8973,0.4095,6.8293,28.8415,2.6829
1595879231,0.3369,-0.9017,0.4004,7.2561,23.9634,0.2439
1595879231,0.3126,-0.8977,0.4263,7.6829,15.2439,-2.9878
1595879231,0.3077,-0.9027,0.4482,7.6220,8.5976,-3.9024
1595879231,0.3007,-0.8809,0.4080,8.7195,4.5732,-4.2683
1595879231,0.2728,-0.8703,0.3202,8.5366,2.6220,-4.8780
1595879231,0.2267,-0.8747,0.2967,7.5000,0.5488,-5.1220
1595879231,0.2488,-0.8832,0.3362,7.8659,-3.2927,-3.0488
1595879231,0.2978,-0.8889,0.3680,9.9390,-8.6585,-0.9146
1595879231,0.3262,-0.8926,0.3755,10.5488,-13.2317,-0.3659
1595879231,0.3484,-0.8885,0.3589,9.6951,-16.6463,-0.7927
1595879231,0.2997,-0.8569,0.3488,8.7805,-18.8415,-2.1951
1595879231,0.2747,-0.8624,0.3024,6.4024,-18.9634,-2.3780
1595879231,0.2602,-0.8718,0.2977,4.7561,-17.9268,-2.9268
1595879231,0.2655,-0.8691,0.3373,5.7927,-15.0000,-0.8537
1595879231,0.2845,-0.8648,0.3343,8.3537,-9.3293,0.2439
1595879231,0.3065,-0.8683,0.3306,9.8780,-4.8171,0.1220
1595879231,0.2950,-0.8646,0.3436,9.6951,-1.1585,0.6098
1595879231,0.2766,-0.8635,0.3606,9.0244,3.1707,0.6098
1595879231,0.2764,-0.8600,0.3335,7.8659,2.5610,0.1220
1595879231,0.2236,-0.8703,0.3144,5.3659,-1.5244,-0.8537
1595879231,0.1573,-0.8647,0.3231,2.6220,-4.8171,-0.3049
1595879232,0.1753,-0.8923,0.3588,0.8537,-9.0244,1.8902
1595879232,0.2165,-0.8978,0.3427,0.9146,-14.1463,3.7195
1595879232,0.2201,-0.9024,0.3247,1.2805,-16.2195,5.4878
1595879232,0.2604,-0.9041,0.3457,1.5244,-17.0122,7.1951
1595879232,0.3065,-0.8918,0.3682,3.2317,-19.5732,7.2561
1595879232,0.2967,-0.8746,0.3824,4.8780,-20.0610,6.0976
1595879232,0.3027,-0.8535,0.3776,5.6707,-17.6829,4.8780
1595879232,0.3943,-0.8635,0.3624,7.3171,-16.0366,2.3171
1595879232,0.3770,-0.8889,0.3546,8.7805,-11.7683,-1.3415
1595879232,0.3144,-0.9041,0.3710,9.4512,-2.2561,-3.2927
1595879232,0.2646,-0.8876,0.3538,13.4756,2.5610,-4.3902
1595879232,0.2476,-0.8900,0.3199,16.1585,-1.3415,-6.0976
1595879232,0.3022,-0.9117,0.2929,18.2927,-11.3415,-6.7683
1595879232,0.3324,-0.9235,0.2962,19.9390,-20.6098,-6.9512
1595879232,0.3592,-0.9395,0.3068,20.5488,-26.7073,-6.5244
1595879232,0.4134,-0.9493,0.3002,20.7927,-32.0122,-6.7073
1595879232,0.4948,-0.9606,0.3077,21.3415,-35.7317,-7.8049
1595879232,0.5809,-0.9899,0.3237,21.7683,-34.6951,-10.4878
1595879232,0.6130,-0.9902,0.3232,22.6829,-28.1098,-14.5732
1595879232,0.6372,-0.9730,0.3237,22.3780,-20.5488,-20.2439
1595879232,0.6757,-0.9588,0.3332,21.8293,-15.7927,-27.8659
1595879232,0.7043,-0.9320,0.3350,22.5000,-10.8537,-36.4634
1595879232,0.7874,-0.8688,0.3011,23.5366,-3.0488,-46.0366
1595879232,0.8994,-0.8054,0.2522,23.5976,8.1098,-56.2195
1595879232,0.9446,-0.7540,0.2400,21.3415,24.7561,-67.3171
1595879232,0.9190,-0.7269,0.2690,16.4634,47.9878,-78.2317
1595879232,0.8735,-0.7105,0.2954,11.1585,72.7439,-88.0488
1595879232,0.7944,-0.6989,0.3262,7.0732,94.7561,-96.5854
1595879232,0.7148,-0.6716,0.3781,4.0854,111.5854,-104.4512
1595879232,0.6315,-0.6287,0.4269,4.0244,121.5854,-110.6707
1595879232,0.5779,-0.5909,0.4442,3.8415,125.2439,-115.3659
1595879232,0.5539,-0.5556,0.4697,4.9390,121.7073,-118.3537
1595879232,0.5452,-0.5228,0.4909,7.2561,111.2805,-120.0000
1595879232,0.5516,-0.4944,0.5118,7.8049,97.0122,-120.9756
1595879232,0.5353,-0.4562,0.4686,5.2439,81.4634,-120.4878
1595879232,0.5236,-0.4638,0.3672,-6.2195,67.0732,-117.5610
1595879232,0.5759,-0.4780,0.2916,-21.2805,56.0976,-110.3049
1595879232,0.6000,-0.4732,0.2761,-29.6341,54.8171,-99.0244
1595879232,0.5121,-0.4788,0.3278,-34.2683,65.9756,-88.5366
1595879232,0.3900,-0.5153,0.4012,-38.1707,78.4756,-80.1829
1595879232,0.2889,-0.5433,0.4830,-40.3049,80.7927,-72.4390
1595879232,0.2250,-0.5562,0.5356,-40.9756,73.0488,-62.8659
1595879232,0.1972,-0.5768,0.5247,-42.8659,61.2805,-51.0366
1595879232,0.1935,-0.6094,0.4700,-44.7561,49.8171,-38.7805
1595879232,0.2112,-0.6541,0.4120,-47.2561,39.5732,-27.6220
1595879232,0.2219,-0.7041,0.3710,-51.1585,30.0610,-15.6098
1595879232,0.2213,-0.7539,0.3701,-51.8902,26.2195,-3.4756
1595879232,0.2071,-0.7994,0.4116,-49.4512,28.8415,8.5976
1595879232,0.2079,-0.8589,0.4580,-48.1098,32.4390,19.2683
1595879232,0.2327,-0.9053,0.4750,-47.4390,35.2439,27.2561
1595879232,0.2607,-0.9410,0.4808,-46.7073,39.8171,32.9268
1595879232,0.2598,-0.9681,0.4557,-46.8293,47.1341,36.5244
1595879232,0.1788,-1.0929,0.0499,-48.0488,56.2805,37.3780
1595879232,0.4383,-1.1511,0.5811,-45.5488,64.5732,38.2317
1595879232,0.3656,-1.0542,0.6157,-26.5244,83.7805,47.3781
1595879232,0.0468,-1.0902,0.6581,-33.7805,97.1951,27.8659
1595879232,0.0884,-1.0479,0.6719,-33.0488,101.5854,25.0610
1595879232,0.1241,-1.0018,0.6042,-22.9268,75.6098,36.1585
1595879232,0.0264,-0.9427,0.4599,-17.2561,55.4268,29.7561
1595879232,0.0209,-0.9329,0.4102,-19.0244,41.8293,30.1220
1595879232,0.0375,-0.9053,0.3824,-16.3415,28.1098,30.0610
1595879232,0.1064,-0.9501,0.3741,-10.5488,21.3415,26.5244
1595879232,0.3570,-0.9692,0.4468,-8.4146,17.6220,27.5610
1595879232,0.5276,-0.9531,0.4490,-1.2805,17.2561,28.9024
1595879232,0.3527,-0.9008,0.4477,-1.3415,36.3415,24.6341
1595879232,0.3430,-0.9753,0.4499,-11.5854,55.7317,22.8049
1595879232,0.3500,-0.9131,0.3887,-7.3780,54.7561,23.8415
1595879232,0.1840,-0.8777,0.3395,-5.4878,50.0000,23.9024
1595879232,0.0687,-0.8903,0.3405,-8.9024,57.7439,24.8780
1595879232,0.0762,-0.9009,0.3486,-7.3171,59.6951,32.9878
1595879232,0.1661,-0.9031,0.3958,-3.3537,47.6829,36.1585
1595879232,0.2136,-0.9060,0.4511,-5.1220,29.3293,35.8537
1595879232,0.2219,-0.8855,0.5071,-8.3537,13.9634,37.1951
1595879232,0.2014,-0.8521,0.4961,-7.1951,3.5976,40.2439
1595879232,0.1819,-0.8563,0.3929,-2.7439,0.1829,37.0122
1595879232,0.1917,-0.8738,0.2516,-0.4268,-1.4634,30.6098
1595879232,0.1650,-0.7808,0.2482,0.2439,-6.1585,31.3415
1595879232,0.2053,-0.8196,0.3050,0.9146,-11.6463,34.3293
1595879232,0.2788,-0.8057,0.4191,1.5854,-13.7805,33.8415
1595879232,0.2520,-0.7770,0.4476,4.0244,-9.8171,29.5732
1595879232,0.2235,-0.7632,0.4459,2.1341,2.8049,27.9268
1595879232,0.2385,-0.7775,0.4516,1.4024,11.4634,30.4268
1595879232,0.2095,-0.7811,0.4728,3.9634,15.4268,29.3293
1595879232,0.1072,-0.7948,0.4835,3.7805,21.5854,29.6951
1595879232,0.0505,-0.8043,0.4488,2.8659,23.5976,32.0732
1595879232,0.0687,-0.8259,0.4160,1.9512,15.2439,35.7317
1595879232,0.1178,-0.8531,0.4247,1.6463,2.6829,34.5732
1595879232,0.1341,-0.8471,0.4523,0.4268,-8.4756,34.9390
1595879232,0.1168,-0.8524,0.4589,-2.3171,-14.3902,36.5854
1595879232,0.1155,-0.8720,0.4553,-3.1098,-16.0976,36.2805
1595879232,0.1356,-0.8808,0.4554,-1.8902,-16.9512,37.2561
1595879232,0.1779,-0.8796,0.4537,-0.7927,-17.1951,37.2561
1595879232,0.1845,-0.8764,0.4540,-0.3049,-14.6341,35.7927
1595879232,0.1619,-0.8694,0.4623,-1.6463,-9.5122,35.1220
1595879232,0.1828,-0.8747,0.5129,-3.1098,-7.3780,35.1220
1595879232,0.1681,-0.8611,0.5477,-3.9634,-8.3537,32.8659
1595879232,0.0654,-0.8213,0.5458,-6.3415,-7.0122,30.3659
1595879232,-0.0404,-0.8091,0.5064,-9.4512,-5.6098,29.7561
1595879232,-0.0013,-0.8220,0.3976,-10.6098,-13.6585,31.8902
1595879232,0.0875,-0.8556,0.3965,-12.4390,-30.4878,31.1585
1595879232,0.0606,-0.8278,0.4655,-14.3293,-49.0854,28.4146
1595879232,0.0153,-0.8386,0.4791,-16.1585,-61.8293,33.2317
1595879232,0.0427,-0.8497,0.5016,-17.1341,-73.1707,34.2683
1595879232,0.0580,-0.8291,0.5040,-15.0610,-87.6220,31.9512
1595879232,0.0312,-0.7916,0.4474,-13.8415,-101.4024,30.7927
1595879232,0.0063,-0.8221,0.3406,-17.4390,-118.2927,28.5366
1595879232,0.0559,-0.9534,0.3513,-24.6341,-144.3293,26.6463
1595879232,0.2329,-0.9317,0.3734,-20.6098,-172.2561,28.1707
1595879232,0.3189,-0.8293,0.3449,-8.5366,-167.6829,37.6829
1595879233,0.3309,-0.8729,0.2581,-9.0244,-124.6341,39.0854
1595879233,0.3425,-0.9152,0.2579,-10.0000,-80.6098,33.5976
1595879233,0.2727,-0.8884,0.2816,-6.6463,-52.9268,33.2927
1595879233,0.1421,-0.8780,0.3292,-6.2805,-32.3171,34.6341
1595879233,0.0303,-0.8685,0.3579,-8.5976,-22.9268,36.4024
1595879233,-0.0019,-0.8566,0.3706,-9.8780,-31.5854,36.4634
1595879233,-0.0092,-0.8485,0.3756,-11.2195,-47.1341,33.4756
1595879233,-0.0986,-0.8315,0.3157,-13.0488,-63.1098,30.6098
1595879233,-0.1451,-0.8633,0.2340,-18.9634,-80.1220,30.2439
1595879233,-0.0628,-0.9299,0.2429,-23.9634,-100.5488,28.3537
1595879233,0.0710,-0.9623,0.3546,-20.4878,-124.9390,27.1341
1595879233,0.3069,-0.9805,0.4977,-14.5732,-140.3659,30.6098
1595879233,0.3608,-0.9393,0.5455,-6.7073,-139.5732,29.7561
1595879233,0.2427,-0.9208,0.5019,-3.5366,-124.6341,23.7195
1595879233,0.2205,-0.9846,0.4979,-4.8171,-116.9512,17.7439
1595879233,0.2285,-1.0259,0.5081,-2.6829,-128.8415,9.1463
1595879233,0.1804,-1.0281,0.4762,-0.2439,-144.0244,0.4268
1595879233,0.1335,-1.0193,0.4582,-1.1585,-154.1463,-7.5610
1595879233,0.0475,-0.9672,0.4088,-1.7683,-161.5854,-13.9634
1595879233,0.0106,-0.9449,0.3449,-4.7561,-169.1463,-18.8415
1595879233,0.0732,-0.9606,0.3295,-10.0000,-178.5976,-22.9878
1595879233,0.1693,-0.9447,0.3275,-12.3780,-191.5854,-27.3780
1595879233,0.1870,-0.9111,0.2816,-15.7317,-205.5488,-31.9512
1595879233,0.0856,-0.9223,0.1415,-24.6341,-220.1220,-37.9268
1595879233,0.1226,-0.9943,0.0166,-35.2439,-240.1220,-42.9268
1595879233,0.3749,-1.0532,0.0350,-38.1098,-257.8049,-43.2317
1595879233,0.6018,-1.0314,0.1611,-33.9024,-263.4756,-42.6829
1595879233,0.7186,-1.0036,0.2225,-27.7439,-248.4756,-45.3659
1595879233,0.6525,-0.9734,0.0693,-25.3049,-219.3902,-52.8659
1595879233,0.5497,-0.9581,-0.0554,-25.7317,-183.8415,-63.1707
1595879233,0.5079,-0.9836,-0.0717,-30.0000,-156.2195,-67.5610
1595879233,0.5179,-0.9786,-0.0718,-34.2683,-156.4024,-72.1341
1595879233,0.5660,-0.9435,-0.1025,-34.6951,-164.0244,-79.6951
1595879233,0.6695,-0.9141,-0.1478,-37.9268,-159.7561,-84.1463
1595879233,0.8257,-0.9313,-0.1860,-45.9146,-146.2805,-88.8415
1595879233,0.8126,-0.9390,-0.1390,-52.5610,-124.7561,-96.5854
1595879233,0.7723,-0.9297,-0.0931,-57.5610,-104.3293,-100.0610
1595879233,0.8250,-0.9393,-0.0562,-58.0488,-86.2805,-101.0976
1595879233,0.8599,-0.9104,-0.0158,-57.6829,-69.8781,-102.5610
1595879233,0.7744,-0.8153,-0.0196,-56.2805,-47.8049,-99.1463
1595879233,0.5802,-0.6921,-0.0652,-55.6707,-19.7561,-94.0244
1595879233,0.5551,-0.6277,-0.1036,-59.1463,0.7927,-87.5000
1595879233,0.6584,-0.5977,-0.1241,-63.0488,4.6951,-84.5732
1595879233,0.7034,-0.5528,-0.1465,-63.9634,1.2805,-84.8171
1595879233,0.6458,-0.5164,-0.1718,-65.1829,1.2195,-79.8171
1595879233,0.5667,-0.5076,-0.1984,-69.0244,3.0488,-73.2317
1595879233,0.5871,-0.5323,-0.1571,-73.9634,1.8293,-68.7195
1595879233,0.7054,-0.5590,-0.0840,-76.0366,-4.0244,-64.5732
1595879233,0.7467,-0.5406,-0.0556,-72.7439,-6.0366,-61.3415
1595879233,0.6870,-0.4779,-0.0373,-68.2927,-0.3049,-58.4756
1595879233,0.6208,-0.4359,-0.0076,-65.1829,6.9512,-53.2927
1595879233,0.6061,-0.4160,0.0160,-62.4390,7.1951,-47.8659
1595879233,0.6219,-0.3987,-0.0097,-59.3293,0.2439,-43.5976
1595879233,0.6437,-0.3867,-0.0545,-57.3171,-5.9756,-39.3293
1595879233,0.6666,-0.4082,-0.0631,-56.8902,-9.8171,-34.0244
1595879233,0.6721,-0.4631,-0.0425,-57.0732,-13.4146,-28.0488
1595879233,0.6930,-0.5233,-0.0249,-56.3415,-17.8049,-23.1707
1595879233,0.7357,-0.5574,-0.0330,-55.0000,-21.8293,-19.2683
1595879233,0.7931,-0.5673,-0.0168,-50.9146,-19.6341,-15.9146
1595879233,0.7783,-0.5870,-0.0015,-45.0000,-7.6220,-12.9878
1595879233,0.7266,-0.6180,-0.0179,-39.4512,9.4512,-10.2439
1595879233,0.7203,-0.6955,0.0547,-32.6829,25.6707,-7.4390
1595879233,0.7187,-0.7433,0.0712,-24.0854,40.6098,-3.9634
1595879233,0.6589,-0.7294,-0.0540,-17.1341,53.2927,2.8659
1595879233,0.6415,-0.6810,-0.0965,-18.2927,61.1585,7.3171
1595879233,0.6919,-0.6854,-0.0475,-16.0976,60.0610,9.4512
1595879233,0.7116,-0.7705,0.0017,-17.9878,41.4634,8.2927
1595879233,0.7833,-0.7531,0.0555,-19.5732,23.6585,6.4024
1595879233,0.7515,-0.7007,0.0825,-15.6707,31.2195,12.6829
1595879233,0.6865,-0.7081,0.0709,-11.9512,50.7927,13.3537
1595879233,0.7072,-0.7516,0.1151,-7.9878,61.9512,13.7195
1595879233,0.7034,-0.7910,0.1696,-2.4390,63.7805,14.7561
1595879233,0.6364,-0.7921,0.1243,1.8293,62.0122,16.0976
1595879233,0.5740,-0.7788,0.0363,2.1951,54.6341,16.8293
1595879233,0.5450,-0.7384,0.0042,-0.7317,37.4390,15.6707
1595879233,0.5423,-0.7257,0.0311,-3.9634,13.9634,15.9756
1595879233,0.5945,-0.7582,0.0483,-6.8293,-7.0122,17.3171
1595879233,0.6396,-0.7744,0.0283,-9.0854,-19.5732,17.8049
1595879233,0.6541,-0.7812,-0.0048,-9.8171,-21.7683,18.0488
1595879233,0.7139,-0.8160,-0.0081,-9.6341,-14.3902,20.2439
1595879233,0.7407,-0.8386,-0.0191,-7.5610,-0.8537,21.5854
1595879233,0.7344,-0.8165,-0.0657,-5.6707,13.4756,20.7317
1595879233,0.7110,-0.7817,-0.0703,-4.4512,26.1585,19.2073
1595879233,0.6418,-0.7700,0.0228,-2.9878,41.5244,18.1098
1595879233,0.6954,-0.8621,-0.0192,2.0732,58.5366,24.3293
1595879233,0.5786,-0.9405,-0.0697,-1.3415,57.8049,16.2805
1595879233,0.5098,-0.7889,-0.0499,-4.3902,30.4878,7.5610
1595879233,0.4963,-0.7164,-0.0651,0.0000,17.0122,20.7927
1595879233,0.5545,-0.7828,-0.0845,-0.3049,16.5854,22.2561
1595879233,0.6022,-0.8053,-0.0754,0.7317,11.8293,19.5732
1595879233,0.6030,-0.7816,-0.0777,4.5122,2.7439,19.6341
1595879233,0.6242,-0.7592,-0.0873,5.5488,-7.1951,19.2683
1595879233,0.6703,-0.7462,-0.0792,6.2805,-16.8293,18.0488
1595879233,0.7021,-0.7324,-0.0884,7.7439,-24.8171,17.5000
1595879233,0.7396,-0.7142,-0.1240,9.9390,-28.5366,18.2927
1595879233,0.8027,-0.6937,-0.1675,14.6951,-23.7195,20.9756
1595879233,0.8292,-0.6629,-0.1868,17.9878,-8.5976,24.8780
1595879233,0.7882,-0.6505,-0.1821,17.0732,11.6463,27.4390
1595879233,0.7426,-0.6598,-0.1466,11.7683,30.6098,28.8415
1595879233,0.6938,-0.6776,-0.0706,8.5976,43.5366,29.5122
1595879233,0.6478,-0.6896,-0.0331,6.7683,48.6585,29.2683
1595879233,0.6286,-0.7061,-0.0232,5.3049,45.8537,28.2927
1595879234,0.6464,-0.7346,-0.0090,5.2439,37.3171,27.0732
1595879234,0.6445,-0.7518,-0.0161,5.6707,26.2805,25.9756
1595879234,0.6456,-0.7502,-0.0113,5.9756,15.3049,23.1707
1595879234,0.6861,-0.7349,-0.0219,6.8293,5.6098,21.3415
1595879234,0.7006,-0.7389,-0.0504,7.0122,-0.9756,19.5732
1595879234,0.6964,-0.7574,-0.0552,5.6098,-2.7439,17.5000
1595879234,0.6870,-0.7787,-0.0513,4.5122,-4.1463,16.0366
1595879234,0.6813,-0.7979,-0.0691,3.4146,-5.7317,14.0854
1595879234,0.6888,-0.8022,-0.0658,2.1951,-5.5488,12.7439
1595879234,0.6563,-0.8083,-0.0092,1.8902,-3.9024,12.5610
1595879234,0.6805,-0.9089,0.0403,1.5854,-1.5244,12.1341
1595879234,0.7142,-0.9395,0.0294,0.1220,-7.3780,6.5854
1595879234,0.6792,-0.8156,0.0392,0.6098,-19.7561,0.4268
1595879234,0.7009,-0.8616,0.0461,1.0976,-17.8049,1.4024
1595879234,0.7229,-0.8571,0.0111,0.1220,-15.6707,-4.5732
1595879234,0.6092,-0.6964,0.0270,3.5976,-11.2195,-3.9024
1595879234,0.4892,-0.7375,0.0567,5.5488,15.1220,6.3415
1595879234,0.5356,-0.8689,0.0693,3.7805,31.4024,7.5000
1595879234,0.6288,-0.8821,0.0636,2.4390,22.8659,5.5488
1595879234,0.5844,-0.7719,0.0468,3.4146,6.5244,3.9024
1595879234,0.5697,-0.7736,0.0385,3.5366,3.7195,7.1951
1595879234,0.6235,-0.8834,0.0492,1.7073,4.9390,7.2561
1595879234,0.6534,-0.9516,0.0869,0.4878,-1.0976,4.3293
1595879234,0.6625,-0.9183,0.0739,1.1585,-10.3659,1.5854
1595879234,0.7019,-0.8109,0.0421,2.1951,-21.1585,-2.1341
1595879234,0.6840,-0.7567,0.0100,2.9268,-22.9878,-2.7439
1595879234,0.5658,-0.7285,-0.0062,2.5610,-14.5122,-2.8659
1595879234,0.5139,-0.7354,-0.0143,2.9878,-6.4024,-0.8537
1595879234,0.5473,-0.7564,-0.0280,1.9512,-4.2683,1.0366
1595879234,0.5492,-0.7653,-0.0533,0.3049,-4.4512,0.7317
1595879234,0.5441,-0.7823,-0.0468,-1.4634,-2.0122,0.6098
1595879234,0.5604,-0.7958,-0.0307,-2.1341,-0.3049,1.0366
1595879234,0.5616,-0.7941,-0.0323,-2.9268,-1.7073,2.1951
1595879234,0.5497,-0.7984,-0.0339,-4.0244,-2.5610,2.9268
1595879234,0.5655,-0.8098,-0.0278,-4.3902,-3.7805,2.7439
1595879234,0.5830,-0.8218,-0.0226,-4.0854,-5.5488,3.1098
1595879234,0.5780,-0.8287,-0.0257,-3.4146,-4.8171,3.4146
1595879234,0.5407,-0.8360,-0.0323,-2.5610,-1.2195,3.5976
1595879234,0.5207,-0.8675,0.0003,-2.4390,2.9268,3.7805
1595879234,0.5554,-0.8740,0.0032,-0.4268,4.7561,5.0000
1595879234,0.5762,-0.8730,-0.0134,2.2561,6.5244,5.9756
1595879234,0.5986,-0.8946,-0.0398,2.7439,9.4512,6.3415
1595879234,0.6406,-0.9371,-0.0380,2.6829,10.3659,6.5854
1595879234,0.5887,-0.9822,-0.0282,1.2805,8.7195,5.8537
1595879234,0.4689,-0.9902,-0.0170,0.6098,9.3293,4.0244
1595879234,0.3746,-0.9706,0.0077,3.2927,9.3902,4.1463
1595879234,0.3777,-0.9561,0.0256,5.7317,7.9268,6.9512
1595879234,0.4138,-0.9693,0.0264,5.0610,7.0732,8.1098
1595879234,0.4433,-0.9910,0.0294,2.9268,5.6098,6.2195
1595879234,0.4443,-0.9926,0.0326,2.3171,4.3293,3.8415
1595879234,0.4175,-0.9838,0.0411,2.4390,5.1829,2.6829
1595879234,0.3765,-0.9667,0.0453,2.0122,8.0488,2.0732
1595879234,0.3808,-0.9550,0.0519,1.4024,9.8171,1.7073
1595879234,0.4142,-0.9579,0.0678,0.4878,9.3902,1.0366
1595879234,0.4156,-0.9562,0.0840,0.1829,9.3902,0.1829
1595879234,0.3928,-0.9509,0.0990,0.6098,12.3171,0.9756
1595879234,0.3859,-0.9427,0.1038,1.6463,16.6463,2.7439
1595879234,0.4081,-0.9431,0.1089,2.7439,21.0976,4.4512
1595879234,0.4244,-0.9467,0.1195,4.0854,24.5732,6.2805
1595879234,0.4110,-0.9310,0.1106,6.5244,28.2927,8.7805
1595879234,0.3717,-0.9131,0.0859,8.1707,32.8049,12.1341
1595879234,0.3339,-0.8959,0.0738,8.5366,35.6707,15.0610
1595879234,0.3322,-0.8800,0.0734,9.2683,34.1463,18.3537
1595879234,0.3536,-0.8771,0.0869,10.3049,30.1829,22.7439
1595879234,0.3745,-0.8740,0.1093,11.4024,25.6098,27.2561
1595879234,0.3932,-0.8689,0.1324,13.5366,22.5000,32.0732
1595879234,0.4030,-0.8684,0.1555,16.2195,20.9756,36.7073
1595879234,0.4077,-0.8757,0.1760,19.2683,19.0244,40.4268
1595879234,0.4133,-0.8755,0.1770,22.9878,15.4268,43.8415
1595879234,0.4135,-0.8666,0.1687,26.9512,10.9146,47.0122
1595879234,0.4171,-0.8525,0.1578,30.6098,6.6463,50.0610
1595879234,0.4318,-0.8414,0.1432,33.2317,2.0732,52.7439
1595879234,0.4467,-0.8375,0.1346,35.1220,-3.0488,55.1829
1595879234,0.4585,-0.8358,0.1385,37.4390,-8.2927,57.5000
1595879234,0.4723,-0.8371,0.1563,40.0610,-12.7439,59.7561
1595879234,0.4849,-0.8425,0.1815,43.0488,-16.3415,61.7073
1595879234,0.4961,-0.8487,0.1902,46.4024,-19.3293,62.9878
1595879234,0.5171,-0.8460,0.1923,49.3902,-22.5000,63.3537
1595879234,0.5380,-0.8374,0.2011,51.9512,-26.4634,63.1707
1595879234,0.5541,-0.8261,0.2075,55.1220,-29.6341,62.7439
1595879234,0.5630,-0.8198,0.2076,58.4756,-31.5854,62.0122
1595879234,0.5642,-0.8171,0.2089,61.4024,-33.9024,60.7317
1595879234,0.5648,-0.8061,0.2016,64.4512,-35.8537,59.5732
1595879234,0.5598,-0.8046,0.2062,66.9512,-36.9512,58.6585
1595879234,0.5614,-0.7981,0.2002,68.3537,-37.5610,57.1951
1595879234,0.5642,-0.7803,0.1901,70.5488,-37.5610,55.6098
1595879234,0.5727,-0.7810,0.2052,71.5854,-38.4146,53.7195
1595879234,0.5883,-0.7761,0.2162,72.7439,-39.7561,51.4024
1595879234,0.5894,-0.7543,0.2196,75.3049,-40.1829,48.8415
1595879234,0.5640,-0.7300,0.2105,76.6463,-41.5854,46.2805
1595879234,0.5308,-0.7220,0.2040,75.7927,-45.6707,43.3537
1595879234,0.5459,-0.7249,0.2003,73.5976,-52.5610,39.8780
1595879234,0.5898,-0.7278,0.1947,72.3781,-60.6707,35.1829
1595879234,0.6170,-0.7217,0.1858,71.4634,-67.2561,29.9390
1595879234,0.6299,-0.7161,0.1781,69.6341,-69.9390,25.0610
1595879234,0.6400,-0.7135,0.1921,67.3171,-70.0000,20.6098
1595879234,0.6461,-0.7072,0.2081,66.1585,-68.1098,16.3415
1595879234,0.6415,-0.6987,0.2059,65.3659,-65.0000,12.1341
1595879234,0.6436,-0.6975,0.2101,64.2683,-62.8049,8.5366
1595879234,0.6434,-0.6876,0.2183,63.9024,-59.5732,6.0366
1595879234,0.6227,-0.6727,0.2125,64.2073,-54.8171,4.0854
1595879235,0.5959,-0.6745,0.1856,61.9512,-50.6707,1.5244
1595879235,0.5877,-0.6893,0.1608,57.6220,-47.1341,-0.7317
1595879235,0.5909,-0.6948,0.1359,54.7561,-41.8293,-1.8293
1595879235,0.5768,-0.6894,0.1208,54.0854,-33.5366,-2.6829
1595879235,0.5710,-0.6915,0.1415,52.7439,-24.0854,-3.3537
1595879235,0.5883,-0.7018,0.1844,51.0366,-14.5122,-2.8659
1595879235,0.5878,-0.7078,0.2123,49.8171,-4.2683,-1.8293
1595879235,0.5511,-0.7166,0.2302,48.4756,6.8293,-1.0366
1595879235,0.5093,-0.7153,0.2206,47.5610,17.0122,-0.1829
1595879235,0.4745,-0.7248,0.1917,44.6951,22.6829,0.9756
1595879235,0.4615,-0.7580,0.1744,39.4512,24.6341,1.6463
1595879235,0.4650,-0.7846,0.1768,36.6463,25.6098,2.1951
1595879235,0.5043,-0.7924,0.2026,36.1585,25.6098,3.2317
1595879235,0.5168,-0.7953,0.2418,36.2805,29.6341,4.8171
1595879235,0.4570,-0.8076,0.2508,34.5122,39.1463,6.1585
1595879235,0.3929,-0.8089,0.2499,32.8049,50.0610,7.5000
1595879235,0.3922,-0.8087,0.2756,33.5976,58.0488,9.2073
1595879235,0.4081,-0.8522,0.2793,29.7561,61.7683,9.2683
1595879235,0.4072,-0.8802,0.2838,22.6829,64.0854,6.7683
1595879235,0.4186,-0.8950,0.2900,19.1463,64.4512,6.2195
1595879235,0.4342,-0.9401,0.2942,16.4024,63.7195,7.0122
1595879235,0.4151,-0.9334,0.3051,16.8902,65.2439,7.2561
1595879235,0.3887,-0.9354,0.3029,19.5732,69.2073,8.2927
1595879235,0.3457,-0.9249,0.3074,16.4634,76.1585,9.4512
1595879235,0.2922,-0.9241,0.2931,11.7073,82.0122,8.6585
1595879235,0.2700,-0.9374,0.2678,6.0976,83.4146,7.0732
1595879235,0.2661,-0.9391,0.2777,2.3171,81.4024,7.6220
1595879235,0.2601,-0.9452,0.2935,-0.1220,78.4756,9.4512
1595879235,0.2213,-0.9633,0.3256,-1.0976,76.8902,11.4634
1595879235,0.1805,-1.0091,0.3531,-3.0488,73.9024,13.0488
1595879235,0.1567,-1.0000,0.3502,-2.6829,68.1707,14.0854
1595879235,0.1159,-0.9749,0.3325,-1.5244,62.1341,14.4512
1595879235,0.1294,-0.9746,0.3238,-6.2195,56.3415,13.2317
1595879235,0.2012,-0.9922,0.3008,-11.0976,48.8415,10.9146
1595879235,0.2736,-1.0302,0.3112,-15.9146,42.1951,6.8902
1595879235,0.2718,-1.0038,0.3738,-15.6098,39.4512,3.5976
1595879235,0.2108,-0.9714,0.4178,-13.1098,42.8659,4.6341
1595879235,0.1830,-0.9641,0.4264,-11.4024,47.9878,4.6951
1595879235,0.2094,-0.9410,0.4173,-9.5732,48.0488,1.5244
1595879235,0.1874,-0.8940,0.4106,-12.9268,40.9756,-2.9878
1595879235,0.1517,-0.8732,0.4657,-16.2195,25.9756,-1.7683
1595879235,0.1387,-0.8680,0.4205,-14.0244,24.4512,-0.5488
1595879235,0.1074,-0.8796,0.3890,-14.3902,22.4390,0.6098
1595879235,0.0919,-0.8837,0.3838,-14.3902,17.9878,2.5610
1595879235,0.1270,-0.8911,0.3972,-13.5366,11.0366,4.3293
1595879235,0.1563,-0.8921,0.4255,-12.5000,3.0488,4.2683
1595879235,0.1639,-0.8976,0.4475,-12.7439,-3.4146,2.8659
1595879235,0.2075,-0.9128,0.4643,-11.5854,-10.1829,-0.2439
1595879235,0.2263,-0.9102,0.4459,-10.1220,-8.6585,-1.6463
1595879235,0.1843,-0.9037,0.4283,-9.3902,-3.3537,-2.3780
1595879235,0.1364,-0.9020,0.3981,-10.0610,0.7927,-1.7683
1595879235,0.1332,-0.9064,0.3575,-12.2561,1.4024,-1.0366
1595879235,0.1766,-0.9102,0.3556,-11.9512,1.0976,-0.7317
1595879235,0.1970,-0.9021,0.3875,-9.0244,4.0854,0.1220
1595879235,0.1683,-0.8924,0.4189,-6.0366,11.4024,0.5488
1595879235,0.2159,-0.8756,0.4492,-3.1707,13.0488,-0.9756
1595879235,0.2234,-0.8594,0.4536,-2.7439,7.3171,-2.8659
1595879235,0.2155,-0.8577,0.4619,-4.2683,4.3902,-4.3902
1595879235,0.2007,-0.8439,0.4492,-5.6707,2.9268,-5.1220
1595879235,0.1639,-0.8331,0.4208,-6.1585,2.9268,-5.0610
1595879235,0.1348,-0.8304,0.3886,-7.7439,3.8415,-4.0854
1595879235,0.1234,-0.8275,0.3639,-7.0122,3.2927,-2.8659
1595879235,0.1646,-0.8440,0.3930,-5.4878,0.6098,-1.0976
1595879235,0.2039,-0.8677,0.4240,-4.0854,-3.7805,-0.2439
1595879235,0.2243,-0.8692,0.4351,-2.5000,-8.3537,-0.3049
1595879236,0.2152,-0.8752,0.4318,-2.3780,-10.9756,-0.5488
1595879236,0.2180,-0.8738,0.4214,-2.8659,-12.1341,-2.8659
1595879236,0.2770,-0.8680,0.4056,-1.3415,-12.3171,-4.5732
1595879236,0.2960,-0.8853,0.4001,-1.2805,-8.5366,-5.9756
1595879236,0.2567,-0.8929,0.4148,-2.2561,-0.7317,-6.9512
1595879236,0.2152,-0.8886,0.4245,-1.6463,7.5610,-6.8293
1595879236,0.2179,-0.8920,0.4150,-0.3659,11.5854,-7.5610
1595879236,0.1758,-0.8871,0.3857,-1.6463,3.1098,-9.0244
1595879236,0.2067,-0.8669,0.3666,-0.6707,-2.0122,-9.1463
1595879236,0.2172,-0.8615,0.3456,-2.0122,-1.5244,-7.2561
1595879236,0.2322,-0.8661,0.3490,-4.1463,-3.0488,-5.9146
1595879236,0.2126,-0.8508,0.4136,-5.3659,-5.1829,-3.3537
1595879236,0.1934,-0.8404,0.4171,-5.8537,-5.1829,-2.4390
1595879236,0.1979,-0.8337,0.4259,-5.3659,-6.2805,-1.9512
1595879236,0.2180,-0.8307,0.4302,-4.5732,-8.2317,-1.5854
1595879236,0.3022,-0.8414,0.4091,-2.8049,-9.4512,-3.2317
1595879236,0.2692,-0.8562,0.4070,-3.1098,-6.5244,-3.4756
1595879236,0.2283,-0.8764,0.4138,-4.5732,-1.4024,-2.2561
1595879236,0.2354,-0.8679,0.4204,-2.6829,1.3415,-1.6463
1595879236,0.2280,-0.8616,0.4185,-0.3659,0.9756,-1.7683
1595879236,0.2195,-0.8657,0.4127,-0.3049,0.6707,-2.2561
1595879236,0.2223,-0.8621,0.4094,0.2439,-0.7927,-2.2561
1595879236,0.2239,-0.8662,0.4012,1.2805,-2.3780,-2.9268
1595879236,0.1991,-0.8744,0.3958,1.9512,-2.7439,-3.9634
1595879236,0.1971,-0.8708,0.3972,1.9512,-1.7073,-5.5488
1595879236,0.2347,-0.8643,0.4011,3.4146,-2.3171,-6.1585
1595879236,0.2593,-0.8761,0.3985,3.7195,-1.7683,-5.6098
1595879236,0.2150,-0.9025,0.3875,1.0976,7.5610,-5.6707
1595879236,0.1870,-0.9091,0.3956,2.0732,10.9756,-4.4512
1595879236,0.1789,-0.9125,0.3951,3.5976,11.4634,-3.8415
1595879236,0.1934,-0.9107,0.4159,4.6341,-1.7073,-5.7927
1595879236,0.2246,-0.9079,0.3964,3.9024,-10.4268,-7.1951
1595879236,0.1946,-0.9072,0.3942,2.5610,-12.1951,-7.1951
1595879236,0.2137,-0.9141,0.4045,6.2195,-12.7439,-4.2683
1595879236,0.2431,-0.9143,0.4301,9.3902,-13.2317,-5.0000
1595879236,0.2569,-0.9184,0.4619,12.1341,-14.3293,-5.8537
1595879236,0.2817,-0.9064,0.4678,15.1829,-20.4268,-11.4634
1595879236,0.2766,-0.9005,0.4749,15.6098,-23.9024,-14.5122
1595879236,0.2305,-0.8842,0.4853,16.8902,-26.7073,-21.2195
1595879236,0.2371,-0.9070,0.4772,18.9634,-28.9634,-23.9024
1595879236,0.3373,-0.8453,0.4933,27.0122,-84.6341,-43.0488
1595879236,0.3927,-0.8160,0.5050,32.7439,-82.1341,-45.4268
1595879236,0.3946,-0.7956,0.4788,33.1707,-86.1585,-49.2683
1595879236,0.4280,-0.7886,0.4587,31.1585,-97.5000,-53.7805
1595879236,0.5077,-0.7684,0.3948,26.7683,-127.8049,-62.8049
1595879236,0.6000,-0.7161,0.3746,15.6098,-142.5000,-62.8049
1595879236,0.5089,-0.6905,0.3735,15.3659,-136.7683,-64.0244
1595879236,0.5282,-0.7014,0.3458,13.8415,-137.1342,-65.3049
1595879236,0.6314,-0.7061,0.2932,12.6220,-150.5488,-66.0976
1595879236,0.6976,-0.6641,0.2075,1.8902,-190.9146,-67.8049
1595879236,0.7122,-0.6592,0.1863,-3.2927,-206.7073,-69.0854
1595879236,0.7079,-0.6210,0.1755,-4.8780,-217.0732,-69.2683
1595879236,0.6735,-0.5757,0.1632,-8.2927,-220.6098,-67.4390
1595879236,0.7405,-0.5855,0.1531,-11.6463,-222.2561,-68.1098
1595879236,0.8102,-0.5667,-0.0336,-20.6098,-223.0488,-62.9878
1595879236,0.8435,-0.5308,-0.0836,-21.1585,-215.5488,-59.3293
1595879236,0.8935,-0.4938,-0.1084,-10.6098,-117.8659,-44.8171
1595879236,0.8327,-0.4919,-0.0982,-9.9390,-99.9390,-42.1341
1595879236,0.7547,-0.4930,-0.1341,-11.3415,-90.3049,-38.7195
1595879236,0.7398,-0.5013,-0.1705,-13.5366,-90.2439,-34.3902
1595879236,0.7547,-0.4941,-0.1551,-14.6341,-89.7561,-30.4878
1595879236,0.7572,-0.5095,-0.1697,-13.1098,-88.5976,-26.5854
1595879236,0.7451,-0.5310,-0.1926,-14.0854,-87.6829,-22.3171
1595879236,0.7191,-0.5447,-0.2038,-15.1829,-85.9756,-20.4878
1595879236,0.7725,-0.4796,-0.2407,-13.1098,-86.7683,-16.3415
1595879236,0.7661,-0.4566,-0.2840,-11.4024,-82.5000,-12.2561
1595879236,0.8085,-0.4997,-0.2885,-14.1463,-79.8781,-10.7317
1595879236,0.8284,-0.5037,-0.2659,-15.7317,-76.9512,-7.9268
1595879236,0.7867,-0.4846,-0.2521,-15.5488,-65.8537,-2.8049
1595879236,0.7531,-0.5039,-0.2621,-16.7683,-49.2073,2.1341
1595879236,0.6713,-0.4977,-0.2780,-18.2927,-36.3415,4.6341
1595879236,0.6366,-0.4713,-0.3171,-17.9878,-26.5854,8.4146
1595879236,0.7318,-0.4887,-0.3676,-19.1463,-22.7439,13.5976
1595879236,0.8260,-0.5023,-0.4118,-21.9512,-23.7195,15.9756
1595879236,0.8162,-0.4984,-0.4072,-23.2317,-16.2195,18.0488
1595879236,0.8062,-0.5279,-0.3909,-24.0854,-2.5000,23.3537
1595879236,0.7520,-0.5396,-0.3811,-25.4268,7.9878,27.0122
1595879236,0.6632,-0.5148,-0.3939,-26.5854,16.7683,29.5732
1595879236,0.6505,-0.5308,-0.4095,-28.6585,20.9756,32.4390
1595879236,0.6248,-0.5231,-0.4472,-30.4268,14.9390,34.8171
1595879236,0.5921,-0.5419,-0.4494,-31.8293,5.9146,37.3780
1595879237,0.6230,-0.5889,-0.4187,-33.7805,-1.7073,40.5488
1595879237,0.6702,-0.6307,-0.3834,-34.5732,-8.9024,42.3780
1595879237,0.6928,-0.6535,-0.3859,-34.5732,-16.0976,43.7195
1595879237,0.7046,-0.6381,-0.4084,-33.5366,-20.7317,45.4878
1595879237,0.7423,-0.6481,-0.4250,-31.8293,-22.2561,46.8902
1595879237,0.7830,-0.6525,-0.4379,-31.2195,-21.8902,47.6220
1595879237,0.8060,-0.6392,-0.4546,-31.5244,-18.1707,48.4146
1595879237,0.7771,-0.6269,-0.4796,-32.2561,-8.7195,48.2927
1595879237,0.7310,-0.6206,-0.4789,-34.2073,9.3293,48.6585
1595879237,0.6805,-0.6229,-0.4285,-34.8171,35.3049,51.0976
1595879237,0.6524,-0.6425,-0.3746,-34.9390,55.7927,50.9146
1595879237,0.6459,-0.6432,-0.3483,-35.9756,65.0000,49.8781
1595879237,0.6620,-0.6003,-0.3950,-35.9146,67.3171,49.3293
1595879237,0.6924,-0.5965,-0.4477,-36.9512,71.7073,48.7195
1595879237,0.6897,-0.6238,-0.4880,-39.6341,78.1098,46.1585
1595879237,0.7424,-0.6457,-0.5399,-43.2927,83.3537,44.8171
1595879237,0.8678,-0.6896,-0.5173,-48.7195,91.6463,46.3415
1595879237,0.9622,-0.6714,-0.4830,-50.8537,106.1585,47.6829
1595879237,0.9346,-0.6426,-0.5159,-49.8781,132.3781,46.6463
1595879237,0.8978,-0.6635,-0.5253,-54.3902,162.5610,43.8415
1595879237,0.9042,-0.6414,-0.5173,-58.2927,186.7073,41.9512
1595879237,0.8718,-0.6257,-0.5510,-57.8659,207.7439,40.6098
1595879237,0.8041,-0.6315,-0.5882,-63.2317,224.2683,38.1098
1595879237,0.7308,-0.6202,-0.5771,-70.8537,229.2073,34.0854
1595879237,0.6512,-0.6204,-0.5334,-79.4512,221.7073,29.3293
1595879237,0.5814,-0.6212,-0.4507,-88.6585,205.7317,22.8659
1595879237,0.5295,-0.6241,-0.3689,-97.1341,185.2439,17.5000
1595879237,0.5385,-0.6224,-0.3068,-103.7195,162.5000,12.6220
1595879237,0.6066,-0.6404,-0.2609,-107.5000,144.8781,9.0854
1595879237,0.6939,-0.6660,-0.1974,-109.1463,135.6707,6.5854
1595879237,0.8098,-0.6859,-0.1732,-108.5976,137.3171,3.9634
1595879237,0.8862,-0.6721,-0.1967,-107.6220,146.4634,-0.3049
1595879237,0.8994,-0.6586,-0.2550,-108.7195,159.2073,-6.8293
1595879237,0.8422,-0.6265,-0.3513,-111.1585,175.8537,-12.8659
1595879237,0.7745,-0.6039,-0.3553,-114.9390,186.8293,-16.1585
1595879237,0.7496,-0.6070,-0.2927,-118.7805,191.9512,-20.7927
1595879237,0.7737,-0.6039,-0.2314,-119.8781,193.2927,-23.4146
1595879237,0.7775,-0.6362,-0.1531,-119.2683,199.3293,-22.9878
1595879237,0.8503,-0.6803,-0.0688,-119.5732,211.0976,-22.9878
1595879237,0.8275,-0.7162,0.0077,-114.6341,226.8293,-24.2683
1595879237,0.7281,-0.7615,0.0842,-108.8415,243.5366,-28.4146
1595879237,0.7487,-0.7355,0.0880,-102.9268,255.6707,-29.5122
1595879237,0.8456,-0.7425,0.0555,-94.5732,260.2439,-36.4634
1595879237,0.8808,-0.7083,0.0367,-85.6098,270.9146,-45.9756
1595879237,0.8725,-0.6941,0.0682,-72.5000,286.6464,-49.8171
1595879237,0.8926,-0.7468,0.0703,-65.4268,300.0000,-51.0976
1595879237,0.8122,-0.7435,0.0760,-59.9390,310.6707,-51.1585
1595879237,0.6124,-0.6654,0.1487,-51.1585,327.7439,-48.5366
1595879237,0.4629,-0.6157,0.2134,-44.0854,343.3537,-42.5000
1595879237,0.3745,-0.6026,0.2996,-36.6463,346.7683,-44.3902
1595879237,0.2457,-0.5341,0.3395,-30.1829,336.7683,-47.8659
1595879237,0.2433,-0.5640,0.3774,-31.4024,312.5610,-46.2195
1595879237,0.3220,-0.6006,0.4022,-35.4268,283.6585,-44.6341
1595879237,0.3440,-0.5550,0.3423,-30.3049,257.8049,-42.5000
1595879237,0.2881,-0.5884,0.2615,-30.4268,237.9878,-41.2805
1595879237,0.2322,-0.6123,0.2601,-37.9268,218.5366,-37.0732
1595879237,0.2113,-0.5872,0.2752,-45.7927,188.9634,-23.2317
1595879237,0.2817,-0.6542,0.3334,-51.9512,150.8537,-12.5000
1595879237,0.1954,-0.6758,0.4602,-57.9268,116.5244,-6.2805
1595879237,0.1153,-0.7043,0.6035,-63.5976,93.2317,7.2561
1595879237,0.1932,-0.8051,0.6452,-61.7073,75.9756,19.6951
1595879237,0.3023,-0.8773,0.6268,-56.8902,61.9512,23.4146
1595879237,0.4163,-0.8921,0.6323,-48.1098,57.0732,24.4512
1595879237,0.4691,-0.9238,0.6265,-38.5976,62.1341,23.5366
1595879237,0.4355,-0.9164,0.6056,-33.4146,67.1341,19.7561
1595879237,0.3655,-0.9124,0.5732,-33.9634,63.5366,18.6585
1595879237,0.3472,-0.9100,0.5329,-36.5244,48.8415,20.6707
1595879237,0.3735,-0.9102,0.5065,-36.9512,27.8049,21.6463
1595879237,0.3914,-0.9133,0.5319,-35.7317,11.7073,21.4634
1595879237,0.3914,-0.8871,0.5673,-33.0488,3.1098,23.6585
1595879237,0.4003,-0.8665,0.5691,-29.7561,0.7927,25.9756
1595879237,0.4286,-0.8569,0.5443,-28.4146,4.3902,26.9512
1595879237,0.4537,-0.8286,0.5153,-27.1951,9.9390,28.1707
1595879237,0.4389,-0.7797,0.4862,-26.4024,14.9390,29.9390
1595879237,0.3517,-0.7517,0.4453,-25.7927,19.8171,31.5854
1595879237,0.3206,-0.7548,0.4293,-27.2561,20.8537,34.6341
1595879237,0.3768,-0.7924,0.4609,-26.3415,15.8537,36.8293
1595879237,0.4351,-0.8318,0.5098,-23.6585,9.5732,36.8293
1595879237,0.4772,-0.8263,0.5283,-21.7073,5.6707,35.9146
1595879237,0.4969,-0.8177,0.5223,-19.9390,3.4146,35.0000
1595879237,0.5235,-0.8442,0.5185,-19.2073,0.4878,33.2927
1595879237,0.5516,-0.8435,0.5097,-18.4756,-4.6341,31.2805
1595879237,0.5015,-0.7908,0.4923,-16.7683,-7.4390,28.7805
1595879237,0.4653,-0.7938,0.4779,-15.9146,-5.5488,26.3415
1595879237,0.5007,-0.8127,0.4795,-14.6951,-5.9756,23.8415
1595879237,0.5463,-0.8019,0.4954,-12.0122,-10.9146,21.2805
1595879237,0.5338,-0.8027,0.4904,-8.9634,-14.5732,17.5610
1595879237,0.5164,-0.7975,0.4770,-7.1341,-14.3902,14.3293
1595879237,0.5526,-0.7964,0.4607,-5.2439,-14.7561,11.5244
1595879237,0.5908,-0.7884,0.4536,-2.1341,-15.9146,8.0488
1595879237,0.5607,-0.7771,0.4553,0.4268,-12.3171,5.3659
1595879237,0.5193,-0.7636,0.4499,1.2805,-5.7317,4.5732
1595879237,0.5310,-0.7546,0.4318,2.1341,-3.6585,4.0244
1595879237,0.5341,-0.7554,0.4269,2.3171,-6.4024,2.6220
1595879237,0.4881,-0.7412,0.4261,1.5244,-8.0488,2.0732
1595879237,0.4858,-0.7378,0.4384,0.7927,-9.6951,2.2561
1595879237,0.5121,-0.7305,0.4551,2.2561,-13.3537,0.7317
1595879237,0.5294,-0.7297,0.4500,4.0244,-16.1585,-1.7683
1595879237,0.5602,-0.7276,0.4126,4.3902,-15.9756,-2.9268
1595879237,0.5821,-0.7308,0.3956,3.6585,-13.7195,-2.9878
1595879237,0.5177,-0.7064,0.4002,1.2195,-8.1098,-1.5244
1595879237,0.4617,-0.7145,0.4139,-0.9146,-1.1585,0.8537
1595879237,0.4660,-0.7319,0.4320,-2.0122,-0.8537,2.1341
1595879237,0.4777,-0.7371,0.4430,-1.9512,-5.5488,1.8902
1595879237,0.4908,-0.7336,0.4451,-0.9756,-8.5976,1.6463
1595879237,0.5076,-0.7379,0.4341,0.3659,-9.6341,1.0366
1595879237,0.5327,-0.7350,0.4334,1.2195,-10.1829,-0.9756
1595879237,0.5594,-0.7360,0.4428,1.7683,-10.9756,-2.6220
1595879237,0.5593,-0.7327,0.4480,1.5244,-10.0000,-3.2317
1595879237,0.5250,-0.7256,0.4430,0.3659,-6.3415,-3.7805
1595879237,0.4890,-0.7085,0.4303,0.1220,-2.8659,-3.6585
1595879238,0.4839,-0.7109,0.4169,0.3049,-2.1341,-3.8415
1595879238,0.5267,-0.7259,0.4293,0.5488,-4.0244,-4.7561
1595879238,0.5828,-0.7390,0.4653,1.2805,-6.8293,-6.5244
1595879238,0.6004,-0.7387,0.4786,1.7683,-7.3171,-7.5000
1595879238,0.5796,-0.7272,0.4650,1.4634,-3.0488,-7.6220
1595879238,0.5852,-0.7155,0.4330,1.0366,2.8659,-6.9512
1595879238,0.5787,-0.7095,0.4115,1.2805,7.5000,-5.7317
1595879238,0.5190,-0.6974,0.4188,-0.1220,11.7683,-4.1463
1595879238,0.4897,-0.7096,0.4350,-1.4634,13.6585,-3.1098
1595879238,0.5283,-0.7442,0.4594,-1.5854,8.7805,-3.5366
1595879238,0.5182,-0.7352,0.4645,-1.2805,-0.2439,-4.8171
1595879238,0.4279,-0.6840,0.4553,-1.4024,-5.8537,-3.5366
1595879238,0.4509,-0.7094,0.4327,-3.2927,-6.5244,-0.9756
1595879238,0.4996,-0.6976,0.4285,-3.5366,-12.9268,-1.0366
1595879238,0.4837,-0.6977,0.4277,-3.7195,-17.7439,-2.1951
1595879238,0.5034,-0.7237,0.4434,-4.5732,-17.5000,-2.5610
1595879238,0.5519,-0.7191,0.4468,-2.2561,-16.8293,-1.7073
1595879238,0.5464,-0.7213,0.4333,-0.0610,-12.2561,-2.7439
1595879238,0.5325,-0.7145,0.4214,0.4878,-5.4878,-3.0488
1595879238,0.5285,-0.7360,0.4430,-0.7317,-0.9756,-2.8659
1595879238,0.5366,-0.7407,0.4655,-2.0122,-2.1951,-2.5000
1595879238,0.5553,-0.7443,0.4577,-2.3171,-4.8780,-2.2561
1595879238,0.5844,-0.7396,0.4505,-2.4390,-4.3902,-1.8902
1595879238,0.5864,-0.7319,0.4442,-1.9512,-1.3415,-1.5244
1595879238,0.5668,-0.7203,0.4459,-1.9512,2.7439,-1.5854
1595879238,0.5345,-0.7077,0.4277,-2.8049,5.1829,-2.6829
1595879238,0.5527,-0.7104,0.4103,-3.8415,5.0000,-4.4512
1595879238,0.5660,-0.6977,0.4084,-3.0488,2.8049,-4.6951
1595879238,0.5258,-0.6995,0.4113,-3.3537,3.2927,-4.8171
1595879238,0.5351,-0.7142,0.4250,-3.9634,5.7927,-5.6098
1595879238,0.5591,-0.7180,0.4314,-2.8659,4.7561,-5.7317
1595879238,0.5648,-0.7368,0.4329,-2.8049,3.2927,-5.3659
1595879238,0.5185,-0.7116,0.4337,-3.1707,3.1098,-4.3902
1595879238,0.5443,-0.7075,0.4449,-3.5366,1.3415,-2.6829
1595879238,0.5818,-0.7357,0.4515,-1.1585,-4.4512,-4.7561
1595879238,0.5870,-0.7096,0.4431,-0.9146,-5.1829,-5.9146
1595879238,0.6154,-0.7112,0.4490,-1.0366,-2.5000,-6.7073
1595879238,0.5881,-0.7166,0.4492,-0.4878,-0.3659,-8.0488
1595879238,0.5981,-0.7455,0.4315,-2.6829,4.4512,-7.6220
1595879238,0.5875,-0.7087,0.4053,-3.2317,4.3902,-8.1707
1595879238,0.5475,-0.7089,0.3832,-3.5366,2.9268,-7.1951
1595879238,0.5470,-0.6985,0.3858,-4.2073,4.6951,-5.5488
1595879238,0.5500,-0.6990,0.3925,-2.7439,5.8537,-5.1220
1595879238,0.5474,-0.7215,0.4092,-2.9268,6.7683,-6.0366
1595879238,0.5183,-0.7095,0.4142,-2.9268,5.0610,-6.2805
1595879238,0.4965,-0.7124,0.4113,-3.0488,1.5854,-6.0366
1595879238,0.5282,-0.7108,0.4081,-3.2317,-4.6341,-6.0976
1595879238,0.5635,-0.7152,0.4030,-2.5000,-11.5854,-6.8293
1595879238,0.5723,-0.7080,0.4052,-2.0732,-15.0610,-7.7439
1595879238,0.6504,-0.7418,0.4297,-1.5244,-14.6341,-8.5976
1595879238,0.6949,-0.7504,0.4172,-1.4024,-14.7561,-11.2805
1595879238,0.4415,-0.5981,0.3718,-0.6098,-8.7195,-9.7561
1595879238,0.4407,-0.7228,0.3569,-6.1585,6.7073,-5.3659
1595879238,0.5546,-0.7051,0.4049,-7.0122,-1.5854,-4.0244
1595879238,0.5870,-0.6882,0.4224,-5.0000,-15.4268,-4.5122
1595879238,0.5701,-0.6918,0.4078,-6.2805,-15.1829,-4.1463
1595879238,0.5421,-0.6819,0.3811,-6.7073,-10.6707,-2.3780
1595879238,0.5417,-0.6892,0.3784,-6.7073,-8.5976,-2.2561
1595879238,0.5807,-0.6968,0.4000,-6.3415,-9.8780,-1.8902
1595879238,0.5979,-0.7017,0.4083,-5.0000,-11.2805,-1.6463
1595879238,0.5942,-0.7083,0.3970,-5.3659,-9.8780,-1.2805
1595879238,0.5903,-0.7157,0.3989,-5.8537,-7.9878,-0.1220
1595879238,0.5761,-0.7195,0.4131,-5.4268,-7.8659,1.3415
1595879238,0.5536,-0.7144,0.4188,-4.9390,-8.7805,2.0122
1595879238,0.5704,-0.7392,0.4106,-4.3293,-10.4878,1.2805
1595879238,0.5669,-0.7180,0.3992,-3.3537,-12.9268,0.5488
1595879238,0.5715,-0.7191,0.3969,-2.2561,-12.8049,1.2195
1595879238,0.5784,-0.7228,0.4038,-1.4024,-10.2439,0.8537
1595879238,0.5523,-0.7127,0.3838,-1.2805,-6.2805,0.9146
1595879238,0.5616,-0.7140,0.3689,-1.5244,-1.4634,1.5244
1595879238,0.5675,-0.7131,0.3675,-1.4024,2.0732,1.5854
1595879238,0.5420,-0.6999,0.3707,-2.2561,4.9390,1.8902
1595879238,0.5208,-0.7068,0.3895,-3.3537,7.3780,1.9512
1595879238,0.5582,-0.7182,0.4083,-4.7561,6.5854,1.5244
1595879238,0.6357,-0.7418,0.4355,-4.8171,2.8659,0.7317
1595879238,0.6548,-0.7309,0.4559,-4.2073,1.4634,-0.1829
1595879238,0.6621,-0.7513,0.4615,-3.3537,2.6220,-2.0732
1595879238,0.6367,-0.7084,0.4330,-1.8293,3.1098,-3.7195
1595879238,0.5865,-0.7006,0.3947,-0.3659,4.6951,-5.3659
1595879238,0.6147,-0.7121,0.3926,-0.6098,4.5122,-6.1585
1595879238,0.6337,-0.6955,0.4066,1.3415,1.8293,-6.2805
1595879238,0.6089,-0.7029,0.4031,2.3171,3.4756,-6.7073
1595879238,0.5770,-0.7068,0.3975,0.8537,5.6707,-6.4634
1595879238,0.5529,-0.6950,0.4003,0.0000,3.6585,-5.6098
1595879238,0.5432,-0.7137,0.4108,0.5488,0.6707,-4.4512
1595879238,0.5140,-0.6923,0.3961,0.9146,1.2195,-2.7439
1595879238,0.4712,-0.6800,0.3819,0.4268,4.7561,-0.3659
1595879238,0.5144,-0.7171,0.3898,-1.3415,5.3659,0.1220
1595879238,0.5788,-0.7122,0.4093,-2.0122,-0.7927,0.1220
1595879238,0.5930,-0.7084,0.4200,-1.7073,-5.3659,0.1829
1595879238,0.5949,-0.7188,0.4167,-2.0122,-4.8171,-0.3659
1595879238,0.5995,-0.7249,0.4139,-2.0732,-2.8659,-0.9146
1595879238,0.6187,-0.7412,0.4128,-2.2561,-1.7683,-3.1707
1595879238,0.6420,-0.7474,0.4029,-1.7683,-2.0122,-4.1463
1595879238,0.6290,-0.7233,0.3774,0.1829,-0.7927,-4.6341
1595879238,0.5906,-0.6980,0.3395,1.2805,3.1098,-4.5122
1595879238,0.5566,-0.6965,0.3210,0.7317,8.1098,-3.7805
1595879238,0.5602,-0.6961,0.3231,-0.3659,9.7561,-2.6220
1595879238,0.6194,-0.7300,0.3530,-1.2195,8.7195,-2.2561
1595879238,0.6420,-0.7099,0.3696,-1.2805,7.5000,-3.2927
1595879238,0.5935,-0.7248,0.3985,-1.2805,9.2073,-3.9024
1595879239,0.6076,-0.7493,0.4243,-2.8049,8.9634,-4.3293
1595879239,0.6436,-0.7212,0.4307,-1.0976,1.6463,-4.5732
1595879239,0.6545,-0.7101,0.4080,0.9756,-3.9024,-6.0976
1595879239,0.6480,-0.7087,0.3916,1.8902,-3.5366,-7.1951
1595879239,0.6199,-0.6931,0.3888,2.4390,-0.3659,-7.9268
1595879239,0.5856,-0.6722,0.3868,2.3171,2.2561,-8.0488
1595879239,0.5872,-0.7049,0.3894,2.3780,2.0122,-7.9878
1595879239,0.5012,-0.6378,0.3851,1.9512,0.7317,-6.2805
1595879239,0.4766,-0.6711,0.3606,-0.1220,3.0488,-2.7439
1595879239,0.5204,-0.6910,0.3524,-2.8049,1.0976,-0.3659
1595879239,0.5272,-0.6736,0.3516,-2.7439,-3.8415,1.1585
1595879239,0.5188,-0.6877,0.3688,-3.0488,-1.3415,2.8049
1595879239,0.5438,-0.7086,0.3885,-4.3902,4.3902,4.8171
1595879239,0.6176,-0.7260,0.4396,-3.3537,7.9268,4.5122
