time,ax,ay,az,gx,gy,gz
1595879211,-0.9903,0.0005,0.0789,-0.2439,0.0610,0.0610
1595879211,-0.9987,0.0010,0.0798,-0.2439,0.0000,-0.2439
1595879211,-0.9971,0.0010,0.0828,-0.1829,-0.0610,-0.3659
1595879211,-0.9958,0.0001,0.0783,-0.1829,-0.0610,-0.3049
1595879211,-0.9973,0.0016,0.0808,-0.3049,-0.0610,-0.1220
1595879211,-0.9968,0.0023,0.0832,-0.2439,-0.0610,0.1220
1595879211,-0.9949,0.0000,0.0792,-0.1220,0.0000,0.1829
1595879211,-0.9966,0.0018,0.0792,-0.1829,-0.1220,0.0610
1595879211,-0.9963,0.0015,0.0804,-0.2439,0.0000,-0.1220
1595879211,-0.9980,0.0006,0.0819,-0.1829,0.0000,-0.3049
1595879211,-0.9949,0.0010,0.0836,-0.3049,-0.0610,-0.3659
1595879211,-0.9975,0.0001,0.0817,-0.3049,0.0610,-0.2439
1595879211,-0.9979,-0.0012,0.0829,-0.1829,0.0000,-0.0610
1595879211,-0.9978,0.0035,0.0816,-0.1829,-0.0610,0.1829
1595879211,-0.9988,0.0040,0.0812,-0.1829,0.0000,0.2439
1595879211,-0.9987,0.0026,0.0834,-0.1829,-0.0610,0.1829
1595879211,-0.9960,0.0027,0.0806,-0.2439,-0.0610,0.0000
1595879211,-0.9964,0.0019,0.0831,-0.1829,0.0610,-0.1829
1595879211,-0.9965,0.0017,0.0831,-0.1829,0.0000,-0.3659
1595879211,-0.9979,0.0008,0.0803,-0.2439,-0.1220,-0.2439
1595879211,-0.9984,-0.0005,0.0800,-0.2439,-0.0610,-0.1220
1595879211,-0.9969,0.0013,0.0806,-0.1220,0.0000,0.0000
1595879211,-0.9988,0.0009,0.0790,-0.2439,-0.0610,0.0610
1595879211,-0.9978,0.0003,0.0812,-0.2439,-0.0610,0.0000
1595879211,-0.9995,0.0010,0.0828,-0.2439,0.0000,0.0000
1595879211,-0.9969,0.0016,0.0825,-0.2439,0.0000,-0.0610
1595879211,-0.9972,0.0010,0.0824,-0.1829,-0.0610,-0.1829
1595879211,-0.9972,0.0012,0.0812,-0.2439,-0.0610,-0.1829
1595879211,-0.9967,0.0001,0.0799,-0.1220,-0.0610,-0.1829
1595879211,-0.9958,0.0019,0.0840,-0.1829,-0.0610,-0.0610
1595879211,-0.9966,0.0026,0.0812,-0.1829,-0.0610,0.0610
1595879211,-0.9980,0.0027,0.0814,-0.2439,0.0000,0.0000
1595879211,-0.9976,0.0040,0.0836,-0.1829,0.0000,-0.0610
1595879211,-0.9986,0.0021,0.0787,-0.2439,-0.0610,-0.1829
1595879211,-0.9989,0.0005,0.0826,-0.2439,0.0000,-0.3049
1595879211,-0.9988,0.0009,0.0819,-0.2439,-0.0610,-0.2439
1595879211,-0.9973,0.0012,0.0812,-0.1829,0.0000,0.0000
1595879211,-0.9992,0.0035,0.0818,-0.1829,-0.0610,0.1220
1595879211,-0.9966,0.0029,0.0820,-0.2439,-0.0610,0.0610
1595879211,-0.9953,0.0031,0.0803,-0.2439,0.0000,-0.1829
1595879211,-0.9960,0.0003,0.0820,-0.2439,0.0000,-0.1220
1595879211,-0.9981,-0.0014,0.0836,-0.3049,-0.0610,-0.1829
1595879211,-0.9982,0.0017,0.0825,-0.1829,0.0000,-0.1829
1595879211,-0.9993,0.0016,0.0806,-0.1829,0.0000,-0.1829
1595879211,-0.9973,0.0012,0.0821,-0.2439,0.0000,-0.1829
1595879211,-0.9965,0.0002,0.0835,-0.1829,0.0610,-0.1220
1595879211,-0.9968,0.0024,0.0833,-0.2439,-0.1220,0.0610
1595879212,-0.9959,0.0027,0.0829,-0.1829,-0.0610,0.1829
1595879212,-0.9976,0.0018,0.0820,-0.1829,0.0000,0.1220
1595879212,-0.9979,0.0001,0.0815,-0.3049,0.0000,-0.1220
1595879212,-0.9971,-0.0007,0.0809,-0.1829,0.0000,-0.3659
1595879212,-0.9979,0.0013,0.0822,-0.2439,-0.0610,-0.3049
1595879212,-0.9990,0.0015,0.0812,-0.1829,-0.0610,-0.2439
1595879212,-0.9980,0.0016,0.0836,-0.2439,0.0000,0.0000
1595879212,-0.9976,0.0012,0.0814,-0.3049,-0.0610,0.1220
1595879212,-0.9965,0.0041,0.0800,-0.1829,-0.1220,0.0000
1595879212,-0.9968,0.0025,0.0837,-0.1829,0.0000,-0.1220
1595879212,-0.9977,0.0027,0.0820,-0.3049,0.0000,-0.1829
1595879212,-0.9974,0.0023,0.0815,-0.2439,-0.0610,-0.0610
1595879212,-0.9989,0.0019,0.0809,-0.1829,0.0000,-0.0610
1595879212,-0.9956,0.0021,0.0828,-0.2439,0.0000,-0.0610
1595879212,-0.9967,0.0010,0.0824,-0.1829,0.0000,-0.1220
1595879212,-0.9971,0.0023,0.0829,-0.1220,0.0000,-0.1829
1595879212,-0.9968,0.0009,0.0818,-0.1829,0.0000,-0.1829
1595879212,-0.9980,0.0008,0.0817,-0.2439,0.0000,-0.2439
1595879212,-0.9955,-0.0004,0.0809,-0.2439,0.0610,-0.1829
1595879212,-0.9965,0.0009,0.0829,-0.2439,-0.0610,-0.1220
1595879212,-0.9963,0.0010,0.0833,-0.1829,0.0000,0.0000
1595879212,-0.9985,0.0024,0.0832,-0.2439,0.0000,0.0610
1595879212,-0.9984,0.0003,0.0819,-0.3049,0.0000,-0.0610
1595879212,-0.9971,0.0033,0.0816,-0.2439,-0.0610,-0.0610
1595879212,-0.9970,0.0008,0.0817,-0.1829,-0.1220,-0.1829
1595879212,-0.9984,0.0005,0.0814,-0.1829,0.0610,-0.0610
1595879212,-0.9971,0.0025,0.0815,-0.1829,0.0610,0.0000
1595879212,-0.9962,0.0039,0.0809,-0.1220,0.0610,-0.1220
1595879212,-0.9996,0.0013,0.0822,-0.1829,0.0000,-0.1829
1595879212,-0.9988,0.0018,0.0834,-0.2439,0.0000,-0.1829
1595879212,-0.9987,0.0017,0.0820,-0.3659,0.0000,-0.1220
1595879212,-0.9980,0.0010,0.0826,-0.2439,0.0610,0.0000
1595879212,-0.9960,0.0033,0.0829,-0.1829,0.0000,0.1220
1595879212,-0.9984,0.0043,0.0807,-0.1220,-0.0610,0.1220
1595879212,-0.9968,0.0037,0.0823,-0.1829,0.0000,0.0000
1595879212,-0.9969,0.0035,0.0830,-0.2439,0.0000,-0.1829
1595879212,-0.9976,0.0007,0.0809,-0.2439,0.0000,-0.3049
1595879212,-0.9979,0.0023,0.0818,-0.2439,-0.0610,-0.3049
1595879212,-0.9960,0.0026,0.0820,-0.2439,0.0000,-0.1220
1595879212,-0.9969,0.0006,0.0830,-0.1829,0.0000,0.0610
1595879212,-0.9969,0.0001,0.0847,-0.2439,-0.0610,0.0610
1595879212,-0.9976,0.0023,0.0809,-0.1220,0.0000,0.0000
1595879212,-0.9979,0.0012,0.0814,-0.1220,0.0000,-0.1220
1595879212,-0.9990,0.0018,0.0806,-0.1220,0.0000,-0.1829
1595879212,-0.9963,-0.0016,0.0834,-0.2439,-0.0610,-0.1220
1595879212,-0.9984,0.0005,0.0828,-0.2439,0.0000,-0.1220
1595879212,-0.9977,-0.0003,0.0822,-0.1829,-0.0610,-0.0610
1595879212,-0.9974,0.0005,0.0822,-0.2439,-0.1220,0.0000
1595879212,-0.9987,0.0011,0.0823,-0.3049,-0.0610,0.0000
1595879212,-0.9968,0.0012,0.0828,-0.1220,-0.0610,0.0000
1595879212,-0.9972,0.0012,0.0842,-0.1220,0.0000,-0.0610
1595879212,-0.9984,0.0005,0.0807,-0.3049,0.0000,-0.1829
1595879212,-0.9989,-0.0004,0.0819,-0.2439,0.0000,-0.3049
1595879212,-0.9971,0.0002,0.0823,-0.2439,0.0000,-0.1829
1595879212,-0.9977,0.0015,0.0848,-0.1829,-0.0610,0.0000
1595879212,-0.9962,0.0016,0.0822,-0.2439,0.0000,0.1829
1595879212,-0.9958,0.0039,0.0818,-0.1829,0.0000,0.1829
1595879212,-0.9988,0.0029,0.0825,-0.1829,0.0000,-0.0610
1595879212,-0.9961,0.0019,0.0824,-0.1829,-0.0610,-0.2439
1595879212,-0.9977,0.0020,0.0837,-0.2439,0.0000,-0.3659
1595879212,-0.9976,0.0007,0.0823,-0.3049,0.0610,-0.2439
1595879212,-0.9976,-0.0003,0.0829,-0.1829,0.0000,0.0000
1595879212,-0.9987,0.0021,0.0836,-0.1829,-0.1220,0.0610
1595879212,-0.9983,0.0012,0.0828,-0.1829,0.0000,-0.0610
1595879212,-0.9955,0.0003,0.0827,-0.1829,0.0000,-0.0610
1595879212,-0.9978,0.0017,0.0825,-0.1829,0.0000,-0.1829
1595879212,-0.9962,0.0012,0.0838,-0.1829,-0.0610,-0.1220
1595879212,-0.9976,0.0021,0.0802,-0.2439,0.0000,-0.0610
1595879212,-0.9968,-0.0004,0.0848,-0.1829,0.0610,-0.1220
1595879212,-0.9976,-0.0004,0.0836,-0.1829,0.0000,-0.1220
1595879212,-0.9955,0.0010,0.0829,-0.1829,0.0610,-0.1220
1595879212,-0.9973,0.0005,0.0826,-0.2439,0.0000,-0.1220
1595879212,-0.9980,0.0026,0.0809,-0.3049,0.0000,0.0000
1595879212,-0.9987,0.0013,0.0816,-0.2439,0.0000,0.0000
1595879212,-0.9982,0.0002,0.0835,-0.3049,0.0000,-0.0610
1595879212,-0.9981,0.0015,0.0825,-0.2439,0.0000,-0.1829
1595879212,-0.9960,0.0016,0.0821,-0.3049,0.0610,-0.1829
1595879212,-0.9977,0.0014,0.0813,-0.1829,-0.0610,-0.0610
1595879212,-0.9985,0.0019,0.0823,-0.2439,0.0000,0.0000
1595879212,-0.9971,0.0004,0.0826,-0.2439,-0.0610,0.0610
1595879212,-0.9971,0.0017,0.0820,-0.3049,-0.0610,0.0000
1595879212,-0.9979,0.0018,0.0827,-0.3049,0.0000,0.0000
1595879212,-1.0003,0.0008,0.0815,-0.2439,-0.0610,-0.1220
1595879212,-0.9971,0.0021,0.0826,-0.2439,-0.0610,-0.1829
1595879212,-0.9955,0.0002,0.0831,-0.3049,0.0000,-0.3659
1595879212,-0.9982,0.0005,0.0817,-0.2439,-0.0610,-0.1829
1595879212,-0.9977,0.0026,0.0826,-0.2439,0.0000,0.0000
1595879212,-0.9973,0.0010,0.0842,-0.1829,-0.0610,0.1829
1595879212,-0.9980,0.0019,0.0837,-0.1829,-0.0610,0.1220
1595879212,-0.9983,0.0013,0.0820,-0.2439,0.0000,-0.0610
1595879212,-0.9977,0.0004,0.0830,-0.2439,0.0000,-0.1829
1595879212,-0.9969,0.0015,0.0845,-0.1829,-0.0610,-0.2439
1595879212,-0.9973,0.0018,0.0816,-0.1220,-0.0610,-0.0610
1595879212,-0.9977,0.0015,0.0834,-0.1829,0.0000,-0.0610
1595879212,-0.9964,0.0023,0.0833,-0.1829,0.0000,-0.0610
1595879212,-0.9984,0.0016,0.0828,-0.2439,0.0000,-0.1220
1595879212,-0.9984,-0.0003,0.0825,-0.3049,-0.0610,-0.1220
1595879212,-0.9963,0.0014,0.0811,-0.2439,-0.0610,-0.0610
1595879212,-0.9990,0.0037,0.0823,-0.1220,-0.0610,0.0610
1595879212,-1.0004,0.0012,0.0806,-0.2439,0.0000,0.0000
1595879212,-0.9946,0.0025,0.0820,-0.3049,0.0000,-0.1220
1595879213,-0.9966,0.0004,0.0836,-0.2439,0.0000,-0.2439
1595879213,-0.9984,-0.0001,0.0829,-0.2439,-0.0610,-0.3049
1595879213,-0.9998,0.0012,0.0823,-0.1829,0.0000,-0.1220
1595879213,-0.9984,0.0018,0.0818,-0.1220,-0.1220,0.0610
1595879213,-0.9982,0.0029,0.0828,-0.1829,-0.0610,0.0610
1595879213,-0.9963,0.0026,0.0820,-0.3049,0.0000,0.0000
1595879213,-0.9967,0.0007,0.0833,-0.3659,0.0000,-0.0610
1595879213,-0.9971,0.0004,0.0835,-0.3049,-0.0610,-0.1220
1595879213,-0.9986,0.0023,0.0819,-0.1829,0.0000,-0.1220
1595879213,-0.9976,0.0009,0.0837,-0.2439,0.0610,-0.1829
1595879213,-0.9982,0.0020,0.0834,-0.1829,0.0000,-0.1220
1595879213,-0.9968,0.0007,0.0822,-0.2439,0.0610,-0.0610
1595879213,-0.9960,0.0009,0.0803,-0.2439,0.0610,-0.0610
1595879213,-0.9984,0.0038,0.0793,-0.1829,-0.0610,0.0610
1595879213,-0.9963,0.0015,0.0836,-0.1220,-0.0610,0.0610
1595879213,-0.9979,0.0009,0.0814,-0.1829,0.0000,-0.1220
1595879213,-0.9963,0.0010,0.0838,-0.3049,-0.0610,-0.3049
1595879213,-0.9988,-0.0002,0.0845,-0.2439,0.0000,-0.4268
1595879213,-0.9966,-0.0007,0.0831,-0.2439,0.0000,-0.1829
1595879213,-0.9968,0.0005,0.0829,-0.2439,0.0000,0.1220
1595879213,-0.9961,0.0023,0.0834,-0.1220,-0.0610,0.3049
1595879213,-0.9955,0.0020,0.0831,-0.1220,-0.0610,0.2439
1595879213,-0.9962,0.0018,0.0838,-0.2439,0.0000,-0.0610
1595879213,-0.9973,-0.0010,0.0826,-0.2439,0.0610,-0.3659
1595879213,-0.9979,-0.0015,0.0847,-0.2439,0.0610,-0.4878
1595879213,-0.9954,-0.0007,0.0830,-0.2439,-0.0610,-0.3659
1595879213,-0.9974,0.0024,0.0812,-0.1829,-0.1220,-0.0610
1595879213,-0.9984,0.0020,0.0845,-0.1220,-0.0610,0.1829
1595879213,-0.9994,0.0018,0.0832,-0.1220,0.0000,0.1829
1595879213,-0.9974,0.0012,0.0818,-0.1829,0.0000,0.0000
1595879213,-0.9979,0.0009,0.0833,-0.2439,0.0000,-0.3049
1595879213,-0.9983,0.0000,0.0850,-0.1829,0.0000,-0.3049
1595879213,-0.9988,0.0018,0.0818,-0.1829,0.0000,-0.1829
1595879213,-0.9975,0.0020,0.0813,-0.1829,-0.1220,0.0000
1595879213,-0.9964,0.0035,0.0828,-0.1829,-0.0610,0.1829
1595879213,-0.9959,0.0041,0.0847,-0.2439,-0.1220,0.1220
1595879213,-0.9996,0.0016,0.0826,-0.3049,0.0000,-0.1220
1595879213,-0.9982,-0.0027,0.0823,-0.3049,0.0000,-0.3049
1595879213,-0.9972,-0.0021,0.0811,-0.3049,0.0610,-0.3659
1595879213,-0.9979,0.0001,0.0820,-0.2439,-0.0610,-0.2439
1595879213,-0.9969,0.0026,0.0851,-0.1829,-0.0610,0.1220
1595879213,-0.9978,0.0019,0.0837,-0.1829,0.0000,0.3049
1595879213,-0.9988,0.0020,0.0841,-0.1829,-0.1220,0.1220
1595879213,-0.9988,0.0007,0.0840,-0.2439,-0.0610,-0.1220
1595879213,-0.9965,-0.0013,0.0838,-0.3049,0.0610,-0.3659
1595879213,-0.9966,0.0005,0.0841,-0.3049,-0.0610,-0.3659
1595879213,-0.9976,-0.0012,0.0826,-0.2439,0.0610,-0.2439
1595879213,-0.9979,-0.0006,0.0829,-0.1220,0.0000,0.0000
1595879213,-1.0001,0.0026,0.0840,-0.2439,-0.0610,0.1220
1595879213,-0.9970,0.0026,0.0836,-0.1220,0.0000,0.0000
1595879213,-0.9982,0.0016,0.0812,-0.2439,-0.0610,-0.1220
1595879213,-0.9980,0.0009,0.0833,-0.3049,-0.0610,-0.1220
1595879213,-0.9971,0.0002,0.0801,-0.3049,0.0610,-0.1220
1595879213,-0.9980,0.0000,0.0833,-0.2439,0.0000,-0.1829
1595879213,-0.9985,0.0001,0.0825,-0.2439,0.0000,-0.1220
1595879213,-0.9972,0.0014,0.0815,-0.3049,-0.0610,-0.1220
1595879213,-0.9976,-0.0001,0.0837,-0.2439,-0.0610,0.0000
1595879213,-0.9973,0.0022,0.0825,-0.1829,0.0000,0.0000
1595879213,-0.9966,0.0017,0.0836,-0.1829,0.0610,0.0000
1595879213,-0.9974,-0.0005,0.0848,-0.1829,0.0000,-0.1220
1595879213,-0.9967,-0.0013,0.0809,-0.2439,0.1220,-0.2439
1595879213,-0.9962,0.0004,0.0823,-0.1829,0.0000,-0.3049
1595879213,-0.9979,0.0015,0.0825,-0.2439,0.0000,-0.1220
1595879213,-0.9982,0.0022,0.0793,-0.1829,0.0000,0.1220
1595879213,-0.9966,0.0023,0.0840,-0.1829,-0.0610,0.1829
1595879213,-0.9984,0.0023,0.0851,-0.2439,0.0000,0.0610
1595879213,-0.9979,0.0021,0.0853,-0.2439,0.0000,-0.1829
1595879213,-0.9960,0.0021,0.0854,-0.2439,-0.0610,-0.3049
1595879213,-0.9962,0.0008,0.0831,-0.2439,0.0000,-0.2439
1595879213,-0.9954,0.0003,0.0831,-0.2439,-0.0610,0.0000
1595879213,-0.9968,0.0014,0.0825,-0.2439,0.0000,0.0000
1595879213,-0.9969,0.0011,0.0836,-0.2439,0.0000,-0.1220
1595879213,-0.9974,0.0023,0.0799,-0.2439,-0.1220,-0.1220
1595879213,-0.9983,0.0012,0.0825,-0.2439,-0.0610,-0.1220
1595879213,-0.9977,0.0015,0.0827,-0.1829,0.0610,0.0610
1595879213,-0.9966,0.0036,0.0833,-0.2439,0.0000,0.1829
1595879213,-0.9973,0.0027,0.0814,-0.1220,0.0000,0.0610
1595879213,-0.9973,0.0015,0.0834,-0.1829,-0.0610,-0.1829
1595879213,-0.9965,-0.0010,0.0829,-0.3049,0.0000,-0.4268
1595879213,-0.9973,-0.0016,0.0842,-0.2439,0.0610,-0.3659
1595879213,-0.9986,-0.0004,0.0815,-0.1829,0.0000,-0.2439
1595879213,-0.9971,0.0011,0.0854,-0.2439,0.0610,0.1220
1595879213,-0.9985,0.0012,0.0825,-0.1829,0.0000,0.1829
1595879213,-0.9980,0.0032,0.0814,-0.1829,0.0000,0.0610
1595879213,-0.9981,0.0027,0.0826,-0.2439,0.0000,-0.1829
1595879213,-0.9979,0.0011,0.0831,-0.2439,0.0000,-0.1829
1595879213,-0.9980,-0.0001,0.0835,-0.3049,0.0000,-0.2439
1595879213,-0.9974,0.0008,0.0833,-0.2439,-0.0610,-0.1829
1595879213,-0.9987,0.0005,0.0807,-0.1829,0.0000,-0.1220
1595879213,-0.9977,0.0032,0.0837,-0.2439,0.0000,0.0610
1595879213,-0.9988,0.0021,0.0846,-0.1829,0.0000,0.0610
1595879213,-0.9962,0.0005,0.0820,-0.1829,-0.0610,-0.0610
1595879213,-0.9966,0.0001,0.0825,-0.2439,-0.0610,-0.1829
1595879213,-0.9962,0.0010,0.0820,-0.2439,0.0610,-0.3049
1595879213,-0.9980,0.0021,0.0814,-0.2439,0.0000,-0.2439
1595879213,-1.0000,0.0024,0.0836,-0.1829,0.0610,0.0000
1595879213,-0.9979,0.0040,0.0823,-0.1829,0.0000,0.1220
1595879213,-0.9955,0.0009,0.0822,-0.1829,0.0000,0.0000
1595879213,-0.9971,0.0014,0.0829,-0.1829,-0.0610,-0.0610
1595879213,-0.9966,0.0001,0.0831,-0.2439,0.0000,-0.0610
1595879213,-0.9982,0.0026,0.0817,-0.2439,-0.0610,-0.0610
1595879213,-0.9971,0.0022,0.0807,-0.1829,0.0000,-0.0610
1595879214,-0.9968,0.0005,0.0833,-0.1829,0.0000,-0.1829
1595879214,-0.9979,-0.0018,0.0836,-0.3049,0.0000,-0.2439
1595879214,-0.9956,0.0010,0.0839,-0.2439,0.0000,-0.3049
1595879214,-0.9971,0.0031,0.0831,-0.2439,0.0000,-0.0610
1595879214,-0.9966,0.0032,0.0815,-0.2439,-0.1220,0.2439
1595879214,-0.9957,0.0039,0.0826,-0.2439,-0.1220,0.2439
1595879214,-0.9975,0.0038,0.0833,-0.2439,0.0000,0.0000
1595879214,-0.9987,-0.0001,0.0822,-0.2439,0.0000,-0.2439
1595879214,-1.0002,0.0002,0.0828,-0.2439,0.0000,-0.3659
1595879214,-0.9976,0.0012,0.0833,-0.3049,-0.0610,-0.2439
1595879214,-0.9983,0.0034,0.0833,-0.1829,0.0000,0.0000
1595879214,-0.9984,0.0029,0.0831,-0.1829,-0.0610,0.0000
1595879214,-0.9977,0.0024,0.0831,-0.1829,-0.1220,-0.0610
1595879214,-0.9977,0.0016,0.0850,-0.2439,-0.0610,-0.1220
1595879214,-0.9976,0.0009,0.0812,-0.1220,0.0610,-0.1220
1595879214,-0.9996,0.0006,0.0820,-0.1829,-0.0610,0.0610
1595879214,-0.9982,0.0016,0.0832,-0.2439,0.0000,0.0000
1595879214,-0.9974,0.0026,0.0822,-0.1829,-0.0610,-0.0610
1595879214,-0.9990,0.0021,0.0822,-0.2439,0.0000,-0.2439
1595879214,-0.9963,0.0013,0.0807,-0.2439,0.0000,-0.1220
1595879214,-0.9978,-0.0002,0.0826,-0.2439,-0.0610,0.0000
1595879214,-0.9977,0.0010,0.0842,-0.2439,-0.0610,0.0610
1595879214,-0.9967,0.0005,0.0842,-0.2439,-0.0610,0.0000
1595879214,-0.9958,0.0009,0.0826,-0.2439,0.0000,-0.1220
1595879214,-0.9959,-0.0003,0.0841,-0.2439,-0.0610,-0.1829
1595879214,-0.9964,0.0003,0.0837,-0.3049,-0.0610,-0.1220
1595879214,-0.9955,0.0018,0.0821,-0.2439,0.0000,-0.0610
1595879214,-0.9990,0.0009,0.0807,-0.2439,-0.0610,0.1220
1595879214,-0.9951,0.0021,0.0827,-0.2439,0.0610,0.0610
1595879214,-0.9974,0.0012,0.0848,-0.1829,-0.0610,-0.1220
1595879214,-0.9984,-0.0002,0.0833,-0.2439,-0.0610,-0.2439
1595879214,-0.9961,-0.0013,0.0808,-0.2439,0.0000,-0.3049
1595879214,-0.9961,0.0000,0.0835,-0.1829,0.0000,-0.1220
1595879214,-0.9977,0.0004,0.0855,-0.3049,-0.0610,0.0610
1595879214,-0.9974,0.0013,0.0818,-0.2439,-0.0610,0.1220
1595879214,-0.9974,-0.0006,0.0823,-0.1829,0.0000,-0.0610
1595879214,-0.9976,0.0011,0.0839,-0.2439,-0.0610,-0.2439
1595879214,-0.9973,0.0010,0.0823,-0.3049,-0.0610,-0.3049
1595879214,-0.9996,0.0001,0.0804,-0.2439,-0.0610,-0.1829
1595879214,-0.9972,0.0018,0.0817,-0.1829,-0.0610,0.0610
1595879214,-0.9973,0.0011,0.0816,-0.1220,-0.0610,0.2439
1595879214,-0.9983,0.0032,0.0834,-0.1829,0.0000,0.0610
1595879214,-0.9981,0.0028,0.0845,-0.2439,0.0000,-0.1829
1595879214,-0.9990,-0.0010,0.0839,-0.2439,0.0000,-0.4268
1595879214,-0.9973,-0.0024,0.0831,-0.3049,0.0000,-0.4878
1595879214,-0.9957,-0.0006,0.0831,-0.2439,0.0000,-0.2439
1595879214,-0.9976,0.0013,0.0844,-0.2439,0.0000,0.0610
1595879214,-0.9975,0.0009,0.0842,-0.2439,0.0000,0.2439
1595879214,-0.9966,0.0016,0.0826,-0.1220,0.0000,0.2439
1595879214,-0.9980,0.0011,0.0850,-0.2439,0.0000,0.0000
1595879214,-0.9979,0.0002,0.0812,-0.2439,0.0000,-0.1829
1595879214,-0.9980,0.0015,0.0823,-0.2439,0.0000,-0.3659
1595879214,-0.9996,-0.0001,0.0846,-0.3049,0.0000,-0.3049
1595879214,-0.9982,0.0001,0.0835,-0.3049,0.0000,-0.3049
1595879214,-0.9952,-0.0007,0.0828,-0.3049,0.0000,-0.2439
1595879214,-0.9960,0.0008,0.0814,-0.2439,-0.0610,-0.1829
1595879214,-0.9971,0.0018,0.0828,-0.2439,-0.1220,0.0610
1595879214,-0.9978,0.0032,0.0831,-0.3049,-0.1220,0.1220
1595879214,-0.9989,0.0035,0.0833,-0.1829,-0.0610,0.1220
1595879214,-0.9984,0.0005,0.0833,-0.2439,-0.0610,0.0610
1595879214,-0.9954,0.0002,0.0836,-0.2439,0.0000,-0.2439
1595879214,-0.9966,-0.0011,0.0833,-0.2439,0.0610,-0.3049
1595879214,-0.9988,0.0006,0.0842,-0.2439,0.0000,-0.2439
1595879214,-0.9968,0.0016,0.0829,-0.1829,-0.0610,0.0610
1595879214,-0.9973,0.0031,0.0820,-0.3049,-0.0610,0.2439
1595879214,-0.9962,0.0025,0.0853,-0.1829,0.0000,0.1220
1595879214,-0.9976,0.0023,0.0821,-0.1829,0.0610,-0.1829
1595879214,-0.9969,-0.0011,0.0831,-0.3049,0.0000,-0.3659
1595879214,-0.9968,-0.0014,0.0815,-0.3049,-0.0610,-0.4268
1595879214,-0.9982,-0.0004,0.0829,-0.2439,-0.0610,-0.2439
1595879214,-0.9998,0.0010,0.0832,-0.1829,0.0000,0.0610
1595879214,-0.9962,0.0052,0.0835,-0.3049,0.0000,0.2439
1595879214,-0.9979,0.0046,0.0835,-0.1829,-0.0610,0.1829
1595879214,-0.9972,0.0015,0.0831,-0.2439,-0.0610,-0.1220
1595879214,-0.9965,0.0016,0.0837,-0.2439,0.1220,-0.2439
1595879214,-0.9971,0.0022,0.0818,-0.2439,0.0000,-0.3049
1595879214,-0.9974,-0.0005,0.0827,-0.3049,0.0000,-0.3049
1595879214,-0.9967,0.0007,0.0829,-0.2439,0.0000,-0.2439
1595879214,-0.9951,0.0014,0.0834,-0.1829,0.0610,-0.3049
1595879214,-0.9975,0.0012,0.0839,-0.1829,-0.0610,-0.0610
1595879214,-0.9988,0.0008,0.0837,-0.2439,0.0000,0.1829
1595879214,-0.9974,0.0031,0.0828,-0.2439,-0.0610,0.3049
1595879214,-0.9979,0.0042,0.0813,-0.2439,0.0610,0.1829
1595879214,-0.9979,0.0009,0.0824,-0.1829,0.0000,-0.1220
1595879214,-0.9949,-0.0002,0.0849,-0.2439,-0.0610,-0.3049
1595879214,-0.9977,0.0004,0.0841,-0.2439,0.0000,-0.3659
1595879214,-0.9968,-0.0006,0.0821,-0.2439,0.0000,-0.2439
1595879214,-0.9968,0.0017,0.0851,-0.2439,-0.0610,-0.1220
1595879214,-0.9990,0.0001,0.0828,-0.2439,-0.0610,0.0000
1595879214,-0.9964,0.0010,0.0829,-0.1829,-0.0610,0.0000
1595879214,-0.9969,0.0020,0.0817,-0.3049,-0.0610,0.0000
1595879214,-0.9968,0.0015,0.0826,-0.3049,0.0000,-0.0610
1595879214,-0.9971,0.0010,0.0815,-0.2439,0.1220,-0.0610
1595879214,-0.9980,0.0004,0.0813,-0.2439,-0.0610,-0.1220
1595879214,-0.9980,0.0012,0.0828,-0.1829,0.0000,-0.2439
1595879214,-0.9967,0.0027,0.0827,-0.1829,0.0610,-0.1220
1595879214,-0.9989,-0.0001,0.0826,-0.1829,-0.0610,-0.0610
1595879214,-0.9979,-0.0002,0.0812,-0.2439,0.0000,-0.0610
1595879214,-0.9965,0.0024,0.0818,-0.3049,0.0610,-0.1220
1595879214,-0.9977,0.0016,0.0833,-0.3049,0.0000,-0.1829
1595879214,-0.9980,0.0013,0.0837,-0.2439,-0.0610,-0.0610
1595879215,-0.9979,0.0016,0.0825,-0.1829,-0.0610,0.0610
1595879215,-0.9958,0.0012,0.0837,-0.2439,0.0000,0.0000
1595879215,-0.9969,0.0011,0.0840,-0.2439,0.0610,-0.0610
1595879215,-0.9985,0.0012,0.0831,-0.3049,0.0000,0.0000
1595879215,-0.9974,0.0009,0.0823,-0.3049,0.0000,0.0000
1595879215,-0.9963,0.0010,0.0827,-0.1829,0.0000,0.0000
1595879215,-0.9968,0.0004,0.0837,-0.1829,-0.0610,-0.0610
1595879215,-0.9988,0.0010,0.0817,-0.3049,-0.0610,-0.1829
1595879215,-0.9984,0.0000,0.0825,-0.2439,0.0000,-0.3659
1595879215,-0.9966,-0.0007,0.0842,-0.2439,-0.0610,-0.3659
1595879215,-0.9968,0.0008,0.0836,-0.2439,0.0000,-0.1829
1595879215,-0.9981,0.0026,0.0873,-0.1829,0.0000,0.0610
1595879215,-0.9976,0.0026,0.0817,-0.1220,0.0000,0.3049
1595879215,-0.9963,0.0016,0.0815,-0.1829,0.0000,0.1829
1595879215,-0.9982,0.0020,0.0805,-0.2439,0.0000,-0.1829
1595879215,-0.9983,0.0020,0.0831,-0.2439,0.0000,-0.3659
1595879215,-0.9966,0.0027,0.0828,-0.3049,-0.0610,-0.3049
1595879215,-0.9977,0.0015,0.0826,-0.3049,-0.0610,-0.0610
1595879215,-1.0000,-0.0002,0.0838,-0.2439,0.0000,0.0000
1595879215,-0.9991,0.0001,0.0825,-0.1220,0.0000,0.0000
1595879215,-0.9974,0.0007,0.0833,-0.3049,0.0000,-0.1220
1595879215,-0.9974,0.0006,0.0824,-0.2439,0.0000,-0.1829
1595879215,-0.9963,0.0013,0.0842,-0.2439,-0.0610,0.0000
1595879215,-0.9974,0.0020,0.0837,-0.2439,-0.0610,0.0610
1595879215,-0.9981,0.0021,0.0834,-0.1829,-0.0610,0.0610
1595879215,-0.9969,0.0035,0.0822,-0.1829,-0.0610,0.0610
1595879215,-0.9958,0.0004,0.0839,-0.3049,0.0000,0.0000
1595879215,-0.9977,0.0021,0.0812,-0.3049,0.0610,-0.0610
1595879215,-0.9972,0.0012,0.0825,-0.2439,0.0610,-0.1829
1595879215,-0.9954,-0.0011,0.0831,-0.2439,0.0000,-0.2439
1595879215,-0.9969,0.0003,0.0834,-0.1829,0.0000,-0.2439
1595879215,-0.9985,0.0001,0.0851,-0.3049,0.0000,-0.2439
1595879215,-0.9979,0.0007,0.0826,-0.2439,0.0000,0.0610
1595879215,-0.9981,0.0027,0.0814,-0.1220,0.0000,0.2439
1595879215,-0.9969,0.0024,0.0836,-0.1220,-0.0610,0.2439
1595879215,-0.9969,0.0015,0.0834,-0.1829,-0.0610,0.0000
1595879215,-0.9963,0.0001,0.0817,-0.2439,0.0000,-0.2439
1595879215,-0.9965,-0.0002,0.0844,-0.2439,0.0000,-0.4878
1595879215,-0.9985,0.0004,0.0832,-0.3049,-0.0610,-0.3659
1595879215,-0.9989,0.0002,0.0826,-0.1829,0.0000,-0.1220
1595879215,-0.9990,0.0004,0.0834,-0.2439,0.0000,0.1220
1595879215,-0.9976,0.0015,0.0850,-0.2439,-0.0610,0.0610
1595879215,-0.9968,0.0008,0.0841,-0.2439,-0.0610,0.0000
1595879215,-0.9981,0.0005,0.0818,-0.2439,-0.1220,-0.1220
1595879215,-0.9981,0.0015,0.0847,-0.3049,-0.0610,-0.2439
1595879215,-0.9980,0.0004,0.0829,-0.3049,0.0000,-0.0610
1595879215,-0.9992,-0.0016,0.0822,-0.1220,0.0000,0.1220
1595879215,-0.9965,0.0027,0.0835,-0.1829,-0.0610,0.0610
1595879215,-0.9973,0.0019,0.0815,-0.3049,0.0000,-0.1220
1595879215,-0.9965,0.0006,0.0811,-0.3049,-0.0610,-0.3049
1595879215,-0.9957,-0.0009,0.0835,-0.2439,-0.0610,-0.3659
1595879215,-0.9970,-0.0005,0.0833,-0.3659,-0.0610,-0.0610
1595879215,-0.9975,0.0016,0.0839,-0.3049,0.0000,0.1220
1595879215,-0.9985,0.0006,0.0872,-0.1829,-0.0610,0.1220
1595879215,-0.9982,0.0009,0.0845,-0.2439,-0.0610,0.0610
1595879215,-0.9988,0.0012,0.0820,-0.3049,-0.0610,-0.1829
1595879215,-0.9972,0.0003,0.0823,-0.3659,0.0000,-0.3049
1595879215,-0.9971,-0.0010,0.0848,-0.3049,-0.0610,-0.2439
1595879215,-0.9974,0.0006,0.0850,-0.2439,0.0000,0.0000
1595879215,-0.9976,0.0025,0.0841,-0.2439,0.0000,0.1829
1595879215,-0.9987,0.0032,0.0834,-0.1829,-0.1220,0.1829
1595879215,-0.9984,0.0024,0.0863,-0.2439,-0.1220,-0.1220
1595879215,-0.9949,0.0013,0.0865,-0.3049,0.0000,-0.4268
1595879215,-0.9966,-0.0015,0.0853,-0.3049,0.0610,-0.4878
1595879215,-0.9969,-0.0011,0.0812,-0.2439,0.0000,-0.2439
1595879215,-0.9968,0.0021,0.0804,-0.1829,-0.1220,0.1220
1595879215,-0.9984,0.0036,0.0823,-0.2439,-0.0610,0.3049
1595879215,-0.9966,0.0040,0.0833,-0.1220,-0.0610,0.1829
1595879215,-1.0003,-0.0002,0.0828,-0.1829,-0.0610,0.0610
1595879215,-0.9993,0.0004,0.0839,-0.1829,0.0000,-0.1220
1595879215,-0.9975,0.0010,0.0840,-0.1829,0.0000,-0.1829
1595879215,-0.9965,0.0005,0.0832,-0.1829,-0.0610,-0.1829
1595879215,-1.0005,-0.0002,0.0833,-0.1829,-0.0610,-0.1220
1595879215,-0.9995,0.0011,0.0829,-0.3049,0.0610,-0.1829
1595879215,-0.9975,0.0004,0.0839,-0.2439,-0.1220,-0.2439
1595879215,-0.9952,0.0004,0.0827,-0.1829,-0.1220,-0.1220
1595879215,-0.9961,0.0005,0.0842,-0.3049,0.0000,0.0610
1595879215,-0.9969,0.0004,0.0851,-0.2439,0.0000,0.1829
1595879215,-0.9971,0.0004,0.0840,-0.1829,-0.0610,0.1220
1595879215,-0.9967,0.0004,0.0820,-0.2439,0.0000,-0.0610
1595879215,-0.9988,0.0004,0.0832,-0.3049,0.0610,-0.2439
1595879215,-0.9957,-0.0001,0.0829,-0.1829,0.0000,-0.3049
1595879215,-0.9981,0.0012,0.0808,-0.3049,-0.0610,-0.1220
1595879215,-0.9984,-0.0010,0.0837,-0.3049,0.0610,0.0610
1595879215,-0.9960,-0.0004,0.0832,-0.1220,0.0000,0.0000
1595879215,-0.9959,0.0021,0.0833,-0.1829,0.0000,-0.0610
1595879215,-0.9976,-0.0009,0.0832,-0.2439,0.0610,-0.1829
1595879215,-0.9984,0.0019,0.0833,-0.1829,0.1220,-0.1829
1595879215,-0.9982,0.0028,0.0846,-0.1829,0.0000,-0.0610
1595879215,-0.9969,0.0014,0.0827,-0.2439,-0.0610,0.0610
1595879215,-0.9991,0.0015,0.0818,-0.1829,-0.0610,0.0000
1595879215,-0.9973,0.0013,0.0828,-0.2439,-0.0610,-0.1829
1595879215,-0.9962,0.0017,0.0845,-0.3659,0.0000,-0.1829
1595879215,-0.9973,0.0029,0.0831,-0.2439,0.0000,-0.1220
1595879215,-0.9975,0.0024,0.0840,-0.1829,0.0000,0.0000
1595879215,-0.9966,0.0016,0.0823,-0.3049,0.0610,-0.1829
1595879215,-0.9974,-0.0010,0.0801,-0.2439,0.0000,-0.2439
1595879215,-0.9981,-0.0012,0.0837,-0.3049,0.0000,-0.3049
1595879215,-0.9973,0.0004,0.0825,-0.2439,0.0610,-0.2439
1595879215,-0.9990,0.0002,0.0840,-0.1829,-0.0610,-0.0610
1595879215,-0.9984,0.0045,0.0814,-0.0610,-0.0610,0.3049
1595879215,-0.9962,0.0035,0.0820,-0.0610,-0.1220,0.3049
1595879216,-0.9976,0.0012,0.0852,-0.1829,0.0000,0.1220
1595879216,-0.9998,0.0025,0.0837,-0.2439,0.0610,-0.1220
1595879216,-0.9978,0.0015,0.0836,-0.2439,0.0610,-0.4268
1595879216,-0.9949,0.0004,0.0831,-0.3049,0.0610,-0.4878
1595879216,-0.9977,-0.0001,0.0849,-0.3049,0.0000,-0.3659
1595879216,-0.9977,-0.0018,0.0832,-0.2439,0.0000,-0.1220
1595879216,-0.9991,0.0009,0.0839,-0.2439,0.0610,0.1220
1595879216,-0.9964,0.0026,0.0811,-0.2439,0.0000,0.1829
1595879216,-0.9977,0.0023,0.0842,-0.1829,-0.0610,0.2439
1595879216,-0.9994,0.0007,0.0838,-0.2439,-0.0610,0.0610
1595879216,-0.9968,0.0012,0.0818,-0.1220,-0.1220,-0.1220
1595879216,-0.9965,0.0016,0.0829,-0.1829,-0.0610,-0.3049
1595879216,-0.9974,0.0001,0.0814,-0.2439,-0.0610,-0.3659
1595879216,-0.9977,0.0000,0.0820,-0.3049,-0.0610,-0.3049
1595879216,-0.9958,-0.0024,0.0836,-0.2439,-0.0610,-0.2439
1595879216,-0.9950,0.0002,0.0839,-0.1220,0.0000,-0.0610
1595879216,-0.9974,0.0020,0.0813,-0.1829,-0.0610,0.1829
1595879216,-0.9983,0.0029,0.0819,-0.1829,-0.0610,0.2439
1595879216,-0.9968,0.0024,0.0829,-0.1829,0.0000,0.0610
1595879216,-0.9969,0.0017,0.0833,-0.2439,0.0000,-0.1829
1595879216,-0.9971,0.0015,0.0825,-0.2439,-0.0610,-0.3659
1595879216,-0.9969,0.0017,0.0824,-0.1829,-0.0610,-0.3659
1595879216,-0.9965,-0.0001,0.0854,-0.2439,0.0000,-0.0610
1595879216,-0.9984,0.0013,0.0836,-0.1829,-0.0610,0.1220
1595879216,-0.9969,0.0031,0.0845,-0.1829,-0.0610,0.1829
1595879216,-0.9960,0.0008,0.0820,-0.1829,-0.0610,0.0000
1595879216,-0.9983,0.0007,0.0832,-0.2439,0.0000,-0.3659
1595879216,-0.9996,-0.0022,0.0836,-0.3049,0.0000,-0.4268
1595879216,-0.9977,0.0009,0.0844,-0.1829,0.0610,-0.3049
1595879216,-0.9973,-0.0006,0.0836,-0.1220,0.0000,-0.0610
1595879216,-0.9974,0.0010,0.0831,-0.1829,-0.0610,0.2439
1595879216,-0.9982,0.0031,0.0841,-0.2439,-0.0610,0.3049
1595879216,-0.9988,0.0013,0.0836,-0.1829,0.0000,0.0000
1595879216,-0.9988,0.0018,0.0832,-0.2439,0.0000,-0.2439
1595879216,-0.9962,0.0007,0.0825,-0.3049,0.0610,-0.3049
1595879216,-0.9977,0.0001,0.0853,-0.2439,0.0000,-0.1829
1595879216,-0.9973,0.0009,0.0848,-0.2439,0.0610,-0.1829
1595879216,-0.9963,0.0000,0.0847,-0.1829,0.0610,-0.1220
1595879216,-0.9976,-0.0007,0.0834,-0.1829,0.0000,-0.1220
1595879216,-0.9976,0.0004,0.0834,-0.1829,0.0000,0.0000
1595879216,-0.9995,0.0009,0.0823,-0.1829,-0.0610,0.0610
1595879216,-0.9960,0.0024,0.0850,-0.1220,-0.0610,0.0000
1595879216,-0.9957,0.0018,0.0837,-0.1829,0.0000,-0.0610
1595879216,-0.9946,-0.0008,0.0823,-0.2439,0.0000,-0.2439
1595879216,-0.9961,0.0006,0.0848,-0.3049,-0.0610,-0.2439
1595879216,-0.9988,0.0006,0.0806,-0.2439,0.0000,-0.1829
1595879216,-0.9978,-0.0005,0.0817,-0.3049,0.0610,-0.1220
1595879216,-0.9977,-0.0003,0.0833,-0.2439,0.0000,-0.1220
1595879216,-0.9980,0.0007,0.0846,-0.2439,0.0000,-0.0610
1595879216,-0.9984,-0.0002,0.0828,-0.3049,0.0000,-0.0610
1595879216,-0.9980,0.0010,0.0825,-0.2439,-0.0610,0.1220
1595879216,-0.9987,0.0011,0.0818,-0.1829,0.0000,0.0610
1595879216,-0.9968,0.0017,0.0824,-0.2439,-0.0610,-0.0610
1595879216,-0.9976,0.0027,0.0839,-0.1829,-0.0610,-0.1829
1595879216,-0.9958,-0.0006,0.0823,-0.3049,-0.0610,-0.2439
1595879216,-0.9957,-0.0019,0.0834,-0.3049,-0.0610,-0.3049
1595879216,-0.9993,-0.0004,0.0811,-0.2439,0.0000,-0.2439
1595879216,-0.9982,-0.0005,0.0836,-0.2439,0.0610,-0.0610
1595879216,-0.9981,0.0010,0.0818,-0.2439,0.0000,0.1220
1595879216,-0.9968,0.0029,0.0844,-0.1829,-0.0610,0.1220
1595879216,-0.9980,0.0033,0.0836,-0.3049,0.0000,0.0000
1595879216,-0.9965,0.0022,0.0823,-0.2439,0.0000,-0.1220
1595879216,-0.9958,-0.0005,0.0822,-0.3049,-0.0610,-0.1829
1595879216,-0.9974,-0.0002,0.0807,-0.2439,0.0000,-0.1829
1595879216,-0.9970,0.0012,0.0817,-0.2439,-0.0610,-0.1220
1595879216,-0.9968,0.0006,0.0821,-0.1829,0.0000,-0.1220
1595879216,-0.9962,-0.0007,0.0824,-0.2439,0.0000,-0.0610
1595879216,-0.9974,-0.0006,0.0831,-0.2439,-0.0610,-0.1829
1595879216,-0.9971,0.0006,0.0820,-0.2439,-0.0610,-0.1220
1595879216,-0.9952,0.0013,0.0817,-0.3049,0.0000,-0.0610
1595879216,-0.9943,0.0009,0.0840,-0.2439,0.0000,0.0000
1595879216,-0.9973,0.0008,0.0836,-0.1220,0.0000,-0.0610
1595879216,-0.9983,0.0014,0.0825,-0.1829,0.0610,-0.1220
1595879216,-0.9965,0.0023,0.0842,-0.1829,0.0000,-0.2439
1595879216,-0.9983,-0.0005,0.0828,-0.1829,0.0000,-0.2439
1595879216,-0.9959,0.0006,0.0808,-0.1829,0.0000,-0.0610
1595879216,-0.9977,0.0011,0.0814,-0.1829,0.0000,0.0000
1595879216,-0.9969,0.0024,0.0839,-0.1829,0.0000,0.0000
1595879216,-0.9972,0.0001,0.0833,-0.2439,-0.1220,0.0000
1595879216,-0.9952,0.0009,0.0829,-0.3049,-0.0610,-0.1829
1595879216,-0.9969,0.0014,0.0851,-0.1220,0.0000,-0.3049
1595879216,-0.9987,0.0007,0.0843,-0.1829,0.0000,-0.2439
1595879216,-0.9962,0.0009,0.0827,-0.2439,0.0610,-0.1829
1595879216,-0.9965,0.0010,0.0820,-0.2439,0.0000,-0.0610
1595879216,-0.9976,0.0029,0.0826,-0.1829,0.0000,0.1220
1595879216,-0.9980,0.0016,0.0827,-0.1829,-0.0610,0.2439
1595879216,-0.9968,0.0015,0.0825,-0.2439,-0.0610,0.0000
1595879216,-0.9971,0.0009,0.0837,-0.2439,0.0000,-0.2439
1595879216,-0.9966,-0.0001,0.0846,-0.2439,0.0000,-0.4268
1595879216,-0.9965,-0.0017,0.0837,-0.1829,0.0610,-0.3049
1595879216,-0.9968,-0.0015,0.0827,-0.1829,0.0000,-0.0610
1595879216,-0.9976,-0.0006,0.0819,-0.2439,0.0000,0.1829
1595879216,-0.9970,0.0021,0.0838,-0.1829,-0.0610,0.1220
1595879216,-0.9976,0.0016,0.0826,-0.1829,-0.0610,0.1220
1595879216,-0.9974,0.0015,0.0821,-0.2439,0.0000,-0.0610
1595879216,-0.9965,0.0013,0.0832,-0.1829,-0.0610,-0.2439
1595879216,-0.9959,0.0008,0.0839,-0.1829,0.0000,-0.2439
1595879216,-0.9962,-0.0017,0.0850,-0.1829,0.0000,-0.3049
1595879216,-0.9975,-0.0001,0.0834,-0.2439,0.0610,-0.1829
1595879216,-0.9983,0.0000,0.0806,-0.2439,-0.0610,0.0000
1595879216,-0.9982,0.0008,0.0811,-0.1829,0.0000,0.0610
1595879216,-0.9965,0.0034,0.0862,-0.1829,-0.0610,0.1220
1595879217,-0.9939,0.0020,0.0834,-0.1829,-0.1220,0.0000
1595879217,-0.9980,0.0008,0.0823,-0.1829,0.0000,-0.1220
1595879217,-0.9982,-0.0005,0.0837,-0.2439,0.0000,-0.3049
1595879217,-0.9973,-0.0007,0.0831,-0.3049,0.0000,-0.3049
1595879217,-0.9958,-0.0013,0.0840,-0.1829,0.0000,-0.1220
1595879217,-0.9969,0.0012,0.0828,-0.1829,0.0000,0.0610
1595879217,-0.9977,0.0007,0.0836,-0.2439,0.0610,0.0000
1595879217,-0.9986,-0.0004,0.0837,-0.2439,0.0000,-0.0610
1595879217,-0.9974,0.0004,0.0837,-0.2439,0.0000,-0.1829
1595879217,-0.9966,-0.0008,0.0844,-0.2439,0.0610,-0.1829
1595879217,-0.9983,0.0021,0.0834,-0.3049,0.0610,-0.0610
1595879217,-0.9973,-0.0004,0.0818,-0.1829,0.0000,0.0000
1595879217,-0.9980,0.0015,0.0833,-0.1829,0.0000,0.0000
1595879217,-0.9974,0.0026,0.0840,-0.1829,-0.0610,-0.1220
1595879217,-0.9974,0.0016,0.0801,-0.2439,-0.0610,-0.1829
1595879217,-0.9973,0.0009,0.0804,-0.3049,-0.0610,-0.1220
1595879217,-0.9969,-0.0001,0.0812,-0.1829,0.0000,0.0000
1595879217,-0.9986,0.0011,0.0804,-0.2439,-0.0610,0.0000
1595879217,-0.9955,0.0005,0.0852,-0.3049,-0.0610,-0.1220
1595879217,-0.9960,-0.0015,0.0853,-0.3049,0.0000,-0.2439
1595879217,-0.9980,-0.0004,0.0823,-0.2439,-0.0610,-0.2439
1595879217,-0.9987,0.0006,0.0839,-0.1829,0.0000,-0.1829
1595879217,-0.9982,0.0012,0.0853,-0.2439,0.0610,-0.0610
1595879217,-0.9986,0.0024,0.0836,-0.1829,0.0000,0.0000
1595879217,-0.9973,0.0008,0.0838,-0.1829,-0.0610,-0.0610
1595879217,-0.9974,0.0009,0.0826,-0.1829,-0.0610,-0.0610
1595879217,-0.9987,0.0023,0.0831,-0.1829,-0.0610,-0.0610
1595879217,-0.9971,0.0004,0.0840,-0.2439,-0.0610,-0.0610
1595879217,-0.9990,-0.0004,0.0818,-0.2439,-0.0610,-0.0610
1595879217,-0.9982,-0.0001,0.0833,-0.1220,-0.0610,-0.1220
1595879217,-0.9988,-0.0008,0.0857,-0.1829,0.0000,-0.3049
1595879217,-0.9987,-0.0009,0.0833,-0.3049,0.0000,-0.1829
1595879217,-0.9984,-0.0013,0.0819,-0.1220,0.0000,-0.0610
1595879217,-0.9957,0.0029,0.0836,-0.1220,-0.0610,0.0000
1595879217,-0.9972,0.0042,0.0843,-0.1829,0.0000,0.1220
1595879217,-0.9993,0.0020,0.0833,-0.1829,0.0610,0.0000
1595879217,-0.9979,0.0023,0.0823,-0.3049,0.0000,-0.1829
1595879217,-0.9966,-0.0005,0.0830,-0.2439,0.0000,-0.3049
1595879217,-0.9979,0.0015,0.0819,-0.0610,0.0000,-0.3049
1595879217,-0.9993,0.0002,0.0818,-0.1220,0.0000,-0.3049
1595879217,-0.9983,0.0016,0.0807,-0.2439,0.0000,-0.1220
1595879217,-0.9966,0.0004,0.0823,-0.2439,-0.0610,0.2439
1595879217,-0.9971,0.0015,0.0843,-0.2439,0.0000,0.1829
1595879217,-0.9967,0.0015,0.0824,-0.1829,0.0000,0.0000
1595879217,-0.9986,0.0021,0.0806,-0.2439,0.0000,-0.1220
1595879217,-0.9974,-0.0005,0.0817,-0.2439,0.0610,-0.2439
1595879217,-0.9985,0.0000,0.0851,-0.2439,0.0000,-0.3049
1595879217,-0.9926,-0.0001,0.0828,-0.2439,-0.0610,-0.0610
1595879217,-0.9976,0.0013,0.0837,-0.2439,0.0000,0.0000
1595879217,-0.9974,0.0003,0.0834,-0.2439,0.0000,-0.0610
1595879217,-0.9949,0.0004,0.0828,-0.2439,0.0000,-0.2439
1595879217,-1.0014,-0.0009,0.0820,-0.3049,0.0000,-0.2439
1595879217,-0.9993,-0.0016,0.0812,-0.3049,0.0610,-0.3659
1595879217,-0.9965,0.0013,0.0837,-0.1829,0.0000,-0.1829
1595879217,-0.9965,0.0036,0.0824,-0.0610,-0.0610,0.6707
1595879217,-0.9969,0.0032,0.0840,-0.1220,-0.0610,0.8537
1595879217,-0.9941,0.0013,0.0851,-0.3049,-0.0610,-0.1220
1595879217,-0.9963,-0.0034,0.0872,-0.3659,0.0610,-1.1585
1595879217,-0.9987,-0.0029,0.0835,-0.3049,0.1220,-0.7927
1595879217,-0.9974,-0.0016,0.0834,-0.3049,0.1220,-0.4268
1595879217,-0.9971,0.0001,0.0806,-0.2439,0.0000,-0.1829
1595879217,-0.9966,0.0054,0.0807,-0.0610,-0.0610,0.7927
1595879217,-1.0013,0.0081,0.0799,-0.0610,-0.0610,1.2805
1595879217,-0.9968,0.0079,0.0818,-0.1829,-0.0610,0.7927
1595879217,-0.9985,0.0082,0.0837,-0.2439,-0.0610,0.3049
1595879217,-0.9955,0.0036,0.0893,-0.2439,0.0000,-0.5488
1595879217,-0.9883,-0.0086,0.0906,-0.4878,0.1220,-2.3171
1595879217,-0.9965,-0.0219,0.0859,-0.7317,0.3049,-3.7805
1595879217,-1.0059,-0.0185,0.0805,-0.5488,0.1829,-2.9268
1595879217,-0.9980,0.0024,0.0756,-0.1220,-0.1829,1.4024
1595879217,-0.9933,0.0222,0.0769,0.3659,-0.5488,5.9756
1595879217,-1.0027,0.0297,0.0840,0.5488,-0.5488,6.8902
1595879217,-0.9984,0.0251,0.0857,-0.3049,-0.4878,3.6585
1595879217,-0.9945,0.0029,0.0901,-0.5488,0.0000,-2.3171
1595879217,-0.9933,-0.0211,0.0878,-1.0366,0.5488,-7.7439
1595879217,-0.9957,-0.0290,0.0858,-1.2805,0.6098,-7.9878
1595879217,-0.9963,-0.0240,0.0801,-0.6707,0.3049,-3.7195
1595879217,-0.9990,-0.0065,0.0805,-0.0610,-0.0610,1.4024
1595879217,-1.0023,0.0152,0.0797,0.4878,-0.4268,5.7317
1595879217,-0.9948,0.0310,0.0844,0.7927,-0.6707,8.1098
1595879217,-0.9996,0.0346,0.0869,0.5488,-0.4878,6.3415
1595879217,-0.9993,0.0229,0.0902,-0.1220,-0.1829,1.0366
1595879217,-0.9948,-0.0013,0.0852,-0.7927,0.3659,-4.6951
1595879217,-0.9976,-0.0306,0.0834,-1.2195,0.6098,-9.0244
1595879217,-0.9990,-0.0397,0.0800,-1.3415,0.6098,-9.2073
1595879217,-0.9968,-0.0226,0.0784,-0.6707,0.1829,-3.1098
1595879217,-0.9995,0.0088,0.0789,0.4268,-0.4268,5.1829
1595879217,-0.9980,0.0268,0.0824,0.9756,-0.7317,9.4512
1595879217,-1.0000,0.0306,0.0864,0.7317,-0.6098,7.5000
1595879217,-0.9985,0.0283,0.0898,0.0610,-0.3049,2.6220
1595879217,-0.9973,0.0068,0.0895,-0.5488,0.1829,-2.5610
1595879217,-0.9939,-0.0226,0.0855,-1.1585,0.5488,-7.6220
1595879217,-0.9984,-0.0400,0.0818,-1.4024,0.6707,-9.6341
1595879217,-0.9948,-0.0250,0.0797,-0.8537,0.3659,-4.6341
1595879217,-0.9929,0.0005,0.0786,0.1220,-0.2439,3.4756
1595879217,-1.0020,0.0252,0.0806,0.7317,-0.6707,8.1098
1595879217,-0.9999,0.0374,0.0859,0.8537,-0.6707,8.6585
1595879217,-0.9966,0.0284,0.0870,0.2439,-0.3659,4.3902
1595879217,-0.9967,0.0049,0.0875,-0.6098,0.2439,-3.0488
1595879217,-0.9988,-0.0201,0.0909,-1.2195,0.6098,-8.2927
1595879217,-0.9963,-0.0279,0.0865,-1.1585,0.5488,-7.8659
1595879218,-0.9944,-0.0246,0.0807,-0.7317,0.3049,-3.9634
1595879218,-0.9977,-0.0089,0.0803,-0.1220,-0.0610,0.8537
1595879218,-1.0007,0.0136,0.0812,0.4268,-0.3659,5.1829
1595879218,-0.9973,0.0248,0.0802,0.6098,-0.5488,7.0122
1595879218,-0.9974,0.0248,0.0818,0.3049,-0.3659,4.8171
1595879218,-0.9979,0.0206,0.0843,-0.0610,-0.1829,0.8537
1595879218,-0.9992,0.0035,0.0882,-0.4268,0.1220,-2.6829
1595879218,-0.9946,-0.0189,0.0881,-0.8537,0.4268,-6.2195
1595879218,-0.9956,-0.0307,0.0853,-1.1585,0.4878,-7.5000
1595879218,-0.9958,-0.0212,0.0834,-0.7317,0.3049,-3.5976
1595879218,-0.9988,0.0013,0.0824,0.1220,-0.1829,2.8659
1595879218,-0.9979,0.0201,0.0809,0.4878,-0.4878,6.6463
1595879218,-0.9996,0.0270,0.0818,0.6098,-0.3659,6.4024
1595879218,-0.9992,0.0225,0.0830,0.2439,-0.2439,3.2927
1595879218,-0.9977,0.0035,0.0836,-0.4878,0.1220,-1.8902
1595879218,-0.9948,-0.0151,0.0850,-0.9756,0.5488,-6.2195
1595879218,-0.9937,-0.0213,0.0872,-0.9146,0.4268,-6.2195
1595879218,-0.9975,-0.0146,0.0859,-0.4878,0.1829,-2.4390
1595879218,-0.9981,-0.0010,0.0829,0.0000,-0.1220,1.5244
1595879218,-0.9975,0.0127,0.0806,0.1829,-0.3049,4.0244
1595879218,-0.9990,0.0188,0.0835,0.3659,-0.3049,4.6341
1595879218,-0.9977,0.0153,0.0815,0.0610,-0.2439,2.5000
1595879218,-0.9950,0.0046,0.0832,-0.2439,0.0610,-0.9756
1595879218,-0.9957,-0.0050,0.0842,-0.6098,0.2439,-3.1098
1595879218,-0.9954,-0.0121,0.0857,-0.6098,0.2439,-3.5976
1595879218,-0.9944,-0.0175,0.0829,-0.6098,0.1829,-3.1098
1595879218,-0.9980,-0.0101,0.0834,-0.3659,0.0610,-1.0366
1595879218,-0.9979,0.0041,0.0833,0.0000,-0.1829,2.1341
1595879218,-1.0002,0.0119,0.0806,0.3659,-0.2439,3.9634
1595879218,-1.0005,0.0192,0.0828,0.3049,-0.2439,3.5366
1595879218,-0.9974,0.0157,0.0834,0.0000,-0.1829,1.6463
1595879218,-0.9980,0.0034,0.0854,-0.3659,0.0610,-1.1585
1595879218,-0.9956,-0.0133,0.0841,-0.7927,0.3049,-4.3293
1595879218,-0.9951,-0.0224,0.0842,-0.8537,0.4268,-5.3049
1595879218,-0.9972,-0.0147,0.0836,-0.6098,0.1220,-2.6829
1595879218,-0.9970,-0.0004,0.0797,-0.0610,-0.1829,1.5854
1595879218,-0.9973,0.0134,0.0817,0.3659,-0.3659,4.3902
1595879218,-0.9992,0.0191,0.0859,0.3659,-0.3659,4.6951
1595879218,-0.9991,0.0138,0.0837,0.0610,-0.2439,2.2561
1595879218,-0.9993,0.0048,0.0838,-0.4268,0.0610,-1.4024
1595879218,-0.9961,-0.0069,0.0843,-0.6707,0.2439,-3.5976
1595879218,-0.9944,-0.0103,0.0843,-0.6707,0.1829,-3.2927
1595879218,-0.9962,-0.0112,0.0847,-0.4268,0.1220,-1.9512
1595879218,-0.9970,-0.0072,0.0827,-0.2439,0.0610,-0.4268
1595879218,-0.9970,-0.0005,0.0814,-0.1220,-0.1220,1.0976
1595879218,-0.9969,0.0048,0.0800,0.0610,-0.1220,2.0122
1595879218,-0.9968,0.0105,0.0816,0.0610,-0.1220,2.0122
1595879218,-0.9976,0.0137,0.0823,0.0000,-0.1829,1.6463
1595879218,-0.9960,0.0100,0.0855,-0.0610,-0.1220,0.7317
1595879218,-0.9974,-0.0003,0.0854,-0.3659,0.0610,-1.2195
1595879218,-0.9965,-0.0095,0.0859,-0.6098,0.1829,-3.0488
1595879218,-0.9969,-0.0112,0.0845,-0.6098,0.1220,-2.9268
1595879218,-0.9979,-0.0070,0.0826,-0.3049,0.0610,-1.0366
1595879218,-0.9983,0.0022,0.0796,-0.1220,-0.1220,1.0366
1595879218,-0.9987,0.0093,0.0828,-0.0610,-0.1829,2.3780
1595879218,-0.9980,0.0103,0.0829,0.1829,-0.3049,2.2561
1595879218,-0.9976,0.0032,0.0828,-0.1220,-0.1220,0.3659
1595879218,-0.9962,-0.0026,0.0846,-0.4268,0.0610,-1.5854
1595879218,-0.9941,-0.0049,0.0836,-0.4268,0.0610,-1.8902
1595879218,-0.9954,-0.0024,0.0833,-0.4268,0.0000,-0.9756
1595879218,-0.9988,-0.0015,0.0857,-0.2439,-0.0610,-0.0610
1595879218,-0.9995,0.0043,0.0829,-0.1220,-0.0610,0.7317
1595879218,-0.9990,0.0065,0.0814,-0.1220,-0.0610,1.0366
1595879218,-0.9997,0.0015,0.0823,-0.1829,0.0000,0.1220
1595879218,-0.9983,0.0017,0.0836,-0.2439,0.0000,-0.4878
1595879218,-0.9972,0.0031,0.0842,-0.3659,0.0000,-0.3049
1595879218,-0.9976,-0.0007,0.0858,-0.2439,0.0000,-0.1829
1595879218,-0.9963,-0.0045,0.0825,-0.2439,0.0610,-0.8537
1595879218,-0.9960,-0.0050,0.0826,-0.3659,0.1220,-0.9756
1595879218,-0.9988,-0.0022,0.0847,-0.3049,0.0610,-0.3049
1595879218,-0.9990,0.0009,0.0838,-0.1829,-0.0610,0.4268
1595879218,-0.9984,0.0074,0.0836,-0.1220,-0.1220,1.4024
1595879218,-0.9974,0.0126,0.0824,-0.0610,-0.1829,2.0732
1595879218,-0.9969,0.0090,0.0831,-0.2439,-0.0610,1.0366
1595879218,-0.9966,-0.0031,0.0833,-0.4878,0.0610,-1.5854
1595879218,-0.9974,-0.0105,0.0829,-0.6098,0.1829,-3.1707
1595879218,-0.9971,-0.0126,0.0836,-0.4878,0.1220,-2.5000
1595879218,-0.9958,-0.0074,0.0823,-0.2439,0.0000,-0.6098
1595879218,-0.9974,0.0035,0.0792,-0.0610,-0.1220,1.4634
1595879218,-0.9982,0.0107,0.0828,-0.0610,-0.2439,2.8659
1595879218,-0.9976,0.0112,0.0829,0.0610,-0.1829,2.1951
1595879218,-0.9993,0.0068,0.0823,-0.1829,-0.0610,0.1220
1595879218,-0.9976,0.0022,0.0834,-0.3659,0.1220,-1.3415
1595879218,-0.9960,-0.0043,0.0853,-0.3049,0.0610,-1.5244
1595879218,-0.9957,-0.0056,0.0840,-0.4268,0.1220,-1.4634
1595879218,-0.9966,-0.0062,0.0826,-0.4268,0.0610,-1.3415
1595879218,-0.9973,-0.0037,0.0832,-0.2439,0.0000,-0.4268
1595879218,-0.9977,-0.0027,0.0809,-0.1829,-0.0610,0.4878
1595879218,-0.9973,0.0017,0.0820,-0.0610,-0.1220,1.0366
1595879218,-0.9988,0.0102,0.0836,-0.0610,-0.1220,1.7073
1595879218,-0.9983,0.0125,0.0835,0.0610,-0.0610,1.7683
1595879218,-0.9974,0.0053,0.0831,-0.1829,0.0000,0.1220
1595879218,-0.9966,-0.0030,0.0834,-0.4878,0.1829,-1.8293
1595879218,-0.9951,-0.0062,0.0834,-0.4878,0.1829,-2.3171
1595879218,-0.9967,-0.0058,0.0809,-0.4268,0.1220,-1.5244
1595879218,-0.9963,-0.0024,0.0821,-0.3049,-0.0610,-0.3049
1595879218,-0.9965,0.0043,0.0834,-0.0610,-0.1829,1.1585
1595879218,-0.9975,0.0086,0.0836,0.0000,-0.2439,2.0122
1595879218,-0.9969,0.0048,0.0825,-0.0610,-0.1220,1.0366
1595879218,-0.9941,-0.0004,0.0828,-0.3659,-0.0610,-0.7317
1595879218,-0.9949,-0.0009,0.0867,-0.4268,0.0000,-1.1585
1595879219,-0.9987,-0.0009,0.0853,-0.2439,0.0610,-0.6707
1595879219,-0.9990,0.0007,0.0820,-0.2439,0.1220,-0.3659
1595879219,-0.9973,0.0027,0.0836,-0.1829,0.0610,0.1220
1595879219,-0.9977,0.0030,0.0810,-0.2439,-0.0610,0.6098
1595879219,-0.9962,0.0015,0.0818,-0.1829,-0.0610,0.2439
1595879219,-0.9968,0.0029,0.0829,-0.3049,0.0000,-0.3659
1595879219,-0.9971,0.0051,0.0838,-0.2439,0.0610,-0.1220
1595879219,-0.9966,0.0025,0.0826,-0.1829,0.0000,0.1220
1595879219,-0.9956,-0.0032,0.0818,-0.3049,0.0000,-0.5488
1595879219,-0.9959,-0.0042,0.0835,-0.3659,0.0610,-1.0366
1595879219,-0.9960,-0.0012,0.0829,-0.2439,-0.0610,-0.6098
1595879219,-0.9974,-0.0018,0.0836,-0.1829,-0.1220,0.1829
1595879219,-0.9977,0.0037,0.0836,-0.1829,-0.1220,0.9146
1595879219,-0.9965,0.0103,0.0832,-0.0610,-0.1220,1.6463
1595879219,-0.9987,0.0069,0.0832,0.0000,-0.0610,1.0976
1595879219,-0.9966,-0.0001,0.0827,-0.3049,0.1220,-0.9756
1595879219,-0.9966,-0.0063,0.0843,-0.4268,0.1220,-2.4390
1595879219,-0.9957,-0.0093,0.0841,-0.4268,0.1220,-2.0732
1595879219,-0.9976,-0.0073,0.0826,-0.2439,0.0610,-0.7927
1595879219,-0.9974,0.0013,0.0818,-0.1220,0.0000,0.6098
1595879219,-0.9986,0.0058,0.0836,0.0000,-0.1220,1.8293
1595879219,-0.9994,0.0081,0.0840,0.0000,-0.1220,1.7683
1595879219,-0.9957,0.0032,0.0823,-0.1829,0.0000,0.1829
1595879219,-0.9968,0.0007,0.0848,-0.3049,0.0610,-0.7927
1595879219,-0.9984,0.0019,0.0856,-0.3659,0.0610,-0.7317
1595879219,-0.9973,0.0005,0.0850,-0.3659,0.0000,-0.6098
1595879219,-0.9967,-0.0029,0.0838,-0.3049,-0.0610,-0.9146
1595879219,-0.9975,-0.0036,0.0823,-0.3049,0.0610,-0.7317
1595879219,-0.9983,-0.0032,0.0825,-0.3049,0.0610,-0.1220
1595879219,-0.9983,-0.0002,0.0814,-0.3659,0.0000,0.3049
1595879219,-0.9962,0.0057,0.0815,-0.1829,0.0000,0.8537
1595879219,-0.9965,0.0110,0.0814,-0.0610,-0.0610,1.4024
1595879219,-0.9995,0.0073,0.0839,-0.1829,-0.1220,0.7317
1595879219,-0.9975,0.0009,0.0850,-0.3659,-0.0610,-0.8537
1595879219,-0.9964,-0.0040,0.0826,-0.4878,0.0610,-1.6463
1595879219,-0.9957,-0.0052,0.0834,-0.3659,0.0610,-1.0976
1595879219,-0.9964,-0.0029,0.0848,-0.2439,0.0610,-0.2439
1595879219,-0.9964,0.0028,0.0820,-0.1220,-0.1220,0.5488
1595879219,-0.9986,0.0063,0.0817,-0.1220,-0.1220,1.1585
1595879219,-0.9971,0.0016,0.0820,-0.1220,-0.0610,0.6098
1595879219,-0.9966,0.0001,0.0834,-0.3049,0.0610,-0.4878
1595879219,-0.9974,-0.0010,0.0849,-0.3659,0.1220,-0.9146
1595879219,-0.9954,-0.0004,0.0832,-0.3049,0.0610,-0.4268
1595879219,-0.9969,-0.0004,0.0825,-0.1829,0.0000,0.0000
1595879219,-0.9952,0.0012,0.0806,-0.2439,0.0000,0.2439
1595879219,-0.9955,0.0021,0.0837,-0.1829,0.0000,0.3049
1595879219,-0.9969,0.0009,0.0825,-0.2439,-0.0610,0.0000
1595879219,-0.9975,-0.0015,0.0815,-0.3049,0.0610,-0.3659
1595879219,-0.9979,0.0007,0.0833,-0.3049,0.0000,-0.3049
1595879219,-0.9969,0.0023,0.0842,-0.1829,0.0000,0.1829
1595879219,-0.9964,0.0002,0.0842,-0.1829,-0.0610,0.0610
1595879219,-0.9971,-0.0036,0.0841,-0.2439,0.0000,-0.5488
1595879219,-0.9979,-0.0026,0.0851,-0.2439,0.0610,-0.6098
1595879219,-0.9975,0.0002,0.0831,-0.1829,0.0610,-0.2439
1595879219,-0.9974,0.0015,0.0833,-0.1220,0.0000,0.1829
1595879219,-0.9975,0.0064,0.0804,-0.1829,-0.0610,0.8537
1595879219,-0.9973,0.0078,0.0845,-0.1220,-0.0610,0.9756
1595879219,-0.9993,0.0020,0.0823,-0.3049,-0.0610,0.0000
1595879219,-0.9986,-0.0039,0.0806,-0.3659,0.0610,-1.3415
1595879219,-0.9954,-0.0034,0.0838,-0.3049,0.1220,-1.5244
1595879219,-0.9957,-0.0012,0.0828,-0.3049,0.0610,-0.7927
1595879219,-0.9965,0.0004,0.0837,-0.2439,-0.0610,0.1829
1595879219,-0.9973,0.0035,0.0819,-0.1220,-0.0610,0.8537
1595879219,-0.9984,0.0037,0.0821,-0.1829,-0.1220,0.8537
1595879219,-0.9990,0.0035,0.0827,-0.1829,-0.1220,0.2439
1595879219,-0.9962,0.0024,0.0813,-0.1829,0.0610,-0.2439
1595879219,-0.9981,0.0031,0.0826,-0.1829,-0.0610,-0.2439
1595879219,-0.9980,0.0011,0.0854,-0.3049,0.0000,-0.1829
1595879219,-0.9972,0.0003,0.0820,-0.3049,0.0610,-0.4878
1595879219,-0.9960,-0.0021,0.0825,-0.3049,0.0610,-0.6098
1595879219,-0.9975,-0.0026,0.0822,-0.3049,0.0000,-0.5488
1595879219,-0.9980,-0.0028,0.0833,-0.2439,-0.0610,-0.1829
1595879219,-0.9976,0.0012,0.0828,-0.2439,0.0000,0.3049
1595879219,-0.9963,0.0051,0.0851,-0.1829,-0.0610,0.7927
1595879219,-0.9955,0.0056,0.0842,-0.1829,0.0000,0.6707
1595879219,-0.9972,0.0027,0.0814,-0.2439,0.0000,-0.1829
1595879219,-0.9977,-0.0029,0.0825,-0.3659,0.1220,-0.9146
1595879219,-0.9985,-0.0052,0.0827,-0.3659,0.0610,-0.8537
1595879219,-0.9974,-0.0017,0.0827,-0.3049,0.0000,-0.3659
1595879219,-0.9985,0.0026,0.0818,-0.2439,0.0000,0.2439
1595879219,-0.9973,0.0023,0.0797,-0.1220,-0.0610,0.5488
1595879219,-0.9982,0.0018,0.0829,-0.1829,-0.1220,0.1829
1595879219,-0.9968,-0.0012,0.0835,-0.2439,0.0000,-0.4268
1595879219,-0.9942,-0.0009,0.0823,-0.2439,0.0610,-0.6707
1595879219,-0.9968,0.0005,0.0843,-0.3049,-0.0610,-0.2439
1595879219,-0.9954,0.0037,0.0826,-0.3049,0.0000,0.1220
1595879219,-0.9955,0.0021,0.0828,-0.2439,0.0000,0.2439
1595879219,-0.9988,0.0004,0.0814,-0.3049,-0.0610,0.0000
1595879219,-0.9978,-0.0022,0.0835,-0.3659,0.0000,-0.4878
1595879219,-0.9963,-0.0002,0.0819,-0.1829,0.0610,-0.4268
1595879219,-0.9965,0.0017,0.0845,-0.2439,-0.0610,0.1829
1595879219,-0.9965,0.0042,0.0849,-0.1220,-0.1220,0.6707
1595879219,-0.9960,0.0045,0.0826,-0.1220,-0.0610,0.3049
1595879219,-0.9976,0.0027,0.0834,-0.3049,0.0610,-0.3049
1595879219,-0.9977,-0.0034,0.0831,-0.3659,0.1220,-1.0366
1595879219,-0.9981,-0.0077,0.0823,-0.3659,0.1220,-1.2805
1595879219,-0.9963,-0.0029,0.0822,-0.2439,0.0000,-0.5488
1595879219,-0.9973,0.0027,0.0810,-0.1829,-0.1220,0.7317
1595879219,-0.9987,0.0044,0.0822,-0.0610,-0.1220,1.3415
1595879219,-0.9974,0.0051,0.0845,-0.1220,0.0000,0.7927
1595879219,-0.9982,0.0033,0.0848,-0.1829,-0.0610,-0.0610
1595879219,-0.9972,-0.0002,0.0836,-0.4268,0.0610,-0.7927
1595879220,-0.9976,-0.0029,0.0814,-0.3659,0.0610,-1.0976
1595879220,-0.9965,-0.0010,0.0832,-0.2439,0.0000,-0.7317
1595879220,-0.9955,-0.0018,0.0833,-0.2439,0.0000,-0.1220
1595879220,-0.9973,-0.0016,0.0822,-0.1220,0.0000,0.3049
1595879220,-0.9980,0.0009,0.0807,-0.0610,-0.0610,0.2439
1595879220,-0.9976,0.0032,0.0831,-0.1220,-0.1220,0.2439
1595879220,-0.9976,0.0020,0.0852,-0.2439,-0.1220,0.3049
1595879220,-0.9982,0.0026,0.0836,-0.2439,-0.0610,0.0610
1595879220,-0.9968,0.0001,0.0834,-0.1829,0.0000,-0.3659
1595879220,-0.9966,-0.0018,0.0838,-0.2439,0.0000,-0.4878
1595879220,-0.9971,-0.0010,0.0849,-0.1829,0.0000,-0.4878
1595879220,-0.9974,-0.0019,0.0833,-0.3049,-0.0610,-0.3659
1595879220,-0.9968,0.0004,0.0822,-0.2439,0.0610,0.1829
1595879220,-0.9969,0.0033,0.0840,-0.0610,0.0000,0.6098
1595879220,-0.9986,0.0036,0.0828,-0.1220,-0.0610,0.3659
1595879220,-0.9971,-0.0004,0.0814,-0.1829,-0.1220,-0.1829
1595879220,-0.9979,-0.0008,0.0820,-0.3049,0.0000,-0.5488
1595879220,-0.9986,-0.0031,0.0844,-0.3049,0.0000,-0.6707
1595879220,-0.9969,-0.0020,0.0813,-0.3049,0.0610,-0.3659
1595879220,-0.9984,0.0034,0.0837,-0.1829,-0.0610,0.1829
1595879220,-0.9977,0.0034,0.0829,-0.1220,-0.1220,0.7317
1595879220,-0.9960,0.0030,0.0822,-0.1220,-0.0610,0.3659
1595879220,-0.9984,0.0007,0.0837,-0.1829,-0.0610,-0.1220
1595879220,-0.9969,0.0012,0.0829,-0.3049,0.0610,-0.4878
1595879220,-0.9976,-0.0019,0.0836,-0.2439,0.0610,-0.4878
1595879220,-0.9998,0.0002,0.0820,-0.2439,0.0610,-0.4878
1595879220,-0.9989,0.0016,0.0814,-0.3049,0.0000,-0.1220
1595879220,-0.9982,0.0024,0.0829,-0.1220,-0.0610,0.1829
1595879220,-0.9973,0.0004,0.0809,-0.1829,0.0000,0.0000
1595879220,-0.9974,0.0015,0.0810,-0.2439,0.0000,0.0000
1595879220,-0.9986,0.0027,0.0831,-0.2439,-0.1220,0.3049
1595879220,-0.9982,0.0062,0.0839,-0.1829,-0.0610,0.6098
1595879220,-0.9985,0.0026,0.0840,-0.2439,0.0610,0.0610
1595879220,-0.9966,-0.0009,0.0828,-0.3049,0.0610,-0.6098
1595879220,-0.9956,-0.0037,0.0824,-0.3659,0.1220,-0.9146
1595879220,-0.9958,-0.0055,0.0821,-0.3049,0.1220,-0.9756
1595879220,-0.9993,-0.0016,0.0809,-0.3049,0.0000,-0.3659
1595879220,-0.9982,0.0045,0.0830,-0.1829,0.0000,0.6707
1595879220,-0.9998,0.0070,0.0826,-0.0610,-0.1220,1.3415
1595879220,-0.9973,0.0066,0.0817,-0.0610,-0.0610,0.7317
1595879220,-0.9955,0.0006,0.0837,-0.2439,0.0610,-0.1220
1595879220,-0.9960,-0.0013,0.0842,-0.2439,0.0610,-0.6098
1595879220,-0.9966,-0.0036,0.0821,-0.3659,0.0000,-0.9146
1595879220,-0.9982,-0.0034,0.0848,-0.4268,0.0610,-0.7927
1595879220,-0.9957,-0.0012,0.0818,-0.2439,0.0000,-0.1220
1595879220,-0.9958,0.0024,0.0823,-0.0610,-0.0610,0.4268
1595879220,-0.9970,0.0029,0.0824,-0.2439,-0.0610,0.3659
1595879220,-0.9982,0.0025,0.0820,-0.3049,-0.0610,0.1220
1595879220,-0.9998,0.0050,0.0829,-0.1220,0.0000,0.1829
1595879220,-0.9997,0.0027,0.0833,-0.1220,-0.0610,0.0610
1595879220,-0.9959,-0.0001,0.0826,-0.3659,0.0610,-0.2439
1595879220,-0.9958,0.0006,0.0846,-0.2439,0.0610,-0.3049
1595879220,-0.9966,-0.0011,0.0845,-0.1829,-0.0610,-0.3049
1595879220,-0.9968,-0.0012,0.0832,-0.1829,0.0610,-0.4878
1595879220,-0.9954,-0.0001,0.0817,-0.2439,0.0000,-0.1829
1595879220,-0.9976,0.0029,0.0833,-0.1829,-0.1220,0.4268
1595879220,-0.9977,0.0029,0.0839,-0.1220,0.0000,0.5488
1595879220,-0.9976,0.0014,0.0826,-0.1829,0.0000,-0.1220
1595879220,-0.9980,-0.0007,0.0837,-0.1829,0.0610,-0.6098
1595879220,-0.9978,-0.0022,0.0837,-0.3049,0.0000,-0.6098
1595879220,-0.9955,-0.0001,0.0834,-0.2439,0.0610,-0.3659
1595879220,-0.9960,0.0009,0.0837,-0.1829,0.0000,0.1220
1595879220,-0.9976,0.0037,0.0823,-0.0610,-0.1220,0.6707
1595879220,-0.9966,0.0045,0.0832,-0.1220,0.0000,0.4878
1595879220,-0.9956,0.0003,0.0815,-0.1829,0.0610,-0.2439
1595879220,-0.9977,-0.0016,0.0850,-0.2439,0.0610,-0.6707
1595879220,-0.9955,-0.0028,0.0828,-0.3659,0.1220,-0.6098
1595879220,-0.9949,-0.0005,0.0833,-0.2439,0.0000,-0.3659
1595879220,-0.9966,-0.0007,0.0854,-0.2439,0.0000,-0.0610
1595879220,-0.9971,0.0012,0.0848,-0.3049,-0.1220,0.1220
1595879220,-0.9963,0.0015,0.0825,-0.1829,-0.0610,0.2439
1595879220,-0.9970,0.0013,0.0831,-0.1829,0.0000,0.1829
1595879220,-0.9969,0.0036,0.0843,-0.1829,0.0610,0.1829
1595879220,-0.9975,0.0032,0.0839,-0.1829,0.0000,0.1829
1595879220,-0.9977,0.0009,0.0825,-0.2439,0.0000,-0.3049
1595879220,-0.9976,-0.0008,0.0842,-0.3659,0.0000,-0.7927
1595879220,-0.9995,-0.0020,0.0834,-0.3049,0.0000,-0.7317
1595879220,-0.9968,-0.0017,0.0841,-0.3049,-0.0610,-0.2439
1595879220,-0.9962,-0.0015,0.0854,-0.3049,0.0000,0.1829
1595879220,-0.9984,0.0025,0.0846,-0.1220,-0.0610,0.5488
1595879220,-0.9974,0.0034,0.0844,-0.1220,-0.1220,0.4878
1595879220,-0.9992,0.0017,0.0849,-0.1829,-0.0610,0.1220
1595879220,-0.9968,-0.0003,0.0825,-0.2439,0.0000,-0.5488
1595879220,-0.9978,-0.0021,0.0811,-0.2439,0.1220,-0.6098
1595879220,-0.9977,-0.0016,0.0807,-0.3049,0.0610,-0.3049
1595879220,-0.9977,-0.0002,0.0850,-0.2439,-0.0610,-0.1220
1595879220,-0.9985,0.0007,0.0848,-0.2439,-0.0610,0.0610
1595879220,-0.9974,0.0012,0.0834,-0.2439,-0.1220,0.1829
1595879220,-0.9960,0.0002,0.0851,-0.3049,0.0000,-0.0610
1595879220,-0.9966,0.0012,0.0840,-0.3049,0.0000,-0.3049
1595879220,-0.9964,0.0020,0.0840,-0.1829,0.0000,-0.1220
1595879220,-0.9974,-0.0006,0.0854,-0.1829,0.0610,0.0000
1595879220,-0.9968,0.0020,0.0826,-0.1829,0.0610,0.0610
1595879220,-0.9954,0.0013,0.0831,-0.3049,0.0000,-0.0610
1595879220,-0.9979,0.0010,0.0830,-0.3659,0.0000,-0.1220
1595879220,-0.9960,-0.0004,0.0813,-0.2439,0.0000,-0.1829
1595879220,-0.9973,0.0013,0.0831,-0.2439,0.0000,-0.1829
1595879220,-0.9976,0.0026,0.0828,-0.1220,-0.0610,-0.0610
1595879220,-0.9964,0.0016,0.0833,-0.1220,0.0000,0.1220
1595879220,-0.9974,0.0013,0.0861,-0.1829,0.0000,0.0000
1595879220,-0.9978,0.0016,0.0833,-0.2439,0.0000,-0.3049
1595879221,-0.9969,-0.0013,0.0822,-0.2439,0.0000,-0.4268
1595879221,-0.9969,-0.0011,0.0835,-0.2439,0.0000,-0.2439
1595879221,-0.9984,0.0024,0.0850,-0.1829,-0.1220,0.0610
1595879221,-0.9983,0.0021,0.0839,-0.2439,0.0000,0.2439
1595879221,-0.9984,0.0003,0.0823,-0.2439,0.0000,0.2439
1595879221,-0.9994,0.0003,0.0802,-0.2439,0.0610,-0.2439
1595879221,-0.9974,0.0013,0.0825,-0.2439,0.0610,-0.6098
1595879221,-0.9961,-0.0004,0.0834,-0.2439,0.0000,-0.4268
1595879221,-0.9971,0.0023,0.0836,-0.3049,-0.0610,0.0000
1595879221,-0.9989,0.0026,0.0855,-0.1220,0.0000,0.2439
1595879221,-0.9982,0.0024,0.0847,-0.2439,-0.0610,0.1220
1595879221,-0.9973,0.0004,0.0819,-0.1829,0.0000,-0.1829
1595879221,-0.9974,-0.0011,0.0828,-0.2439,0.0000,-0.3659
1595879221,-0.9978,-0.0005,0.0822,-0.3049,0.0000,-0.2439
1595879221,-0.9987,0.0010,0.0828,-0.1220,0.0000,0.0610
1595879221,-0.9968,0.0007,0.0831,-0.1829,-0.0610,0.2439
1595879221,-0.9957,0.0002,0.0839,-0.2439,-0.0610,0.0000
1595879221,-0.9986,0.0002,0.0828,-0.1829,-0.0610,-0.3049
1595879221,-0.9982,-0.0010,0.0832,-0.2439,0.0000,-0.4268
1595879221,-0.9948,0.0017,0.0841,-0.3049,0.0000,-0.1829
1595879221,-0.9954,0.0020,0.0822,-0.2439,0.0000,0.0000
1595879221,-0.9962,-0.0005,0.0810,-0.2439,0.0000,0.0610
1595879221,-0.9982,0.0005,0.0826,-0.3049,0.0000,-0.0610
1595879221,-0.9959,0.0005,0.0804,-0.2439,0.0610,-0.2439
1595879221,-0.9966,0.0009,0.0830,-0.3049,0.0610,-0.3049
1595879221,-0.9977,0.0027,0.0848,-0.2439,0.0000,0.0000
1595879221,-0.9961,0.0021,0.0839,-0.1220,0.0000,0.1829
1595879221,-0.9973,0.0029,0.0813,-0.1829,-0.0610,0.1829
1595879221,-0.9962,0.0015,0.0832,-0.2439,-0.0610,-0.1220
1595879221,-0.9979,0.0003,0.0834,-0.2439,0.0000,-0.3659
1595879221,-0.9985,0.0007,0.0805,-0.2439,0.0610,-0.4268
1595879221,-0.9965,-0.0006,0.0836,-0.3049,0.0000,-0.3049
1595879221,-0.9968,0.0017,0.0840,-0.2439,0.0000,0.0000
1595879221,-0.9984,0.0012,0.0840,-0.1220,0.0000,0.1220
1595879221,-0.9971,0.0018,0.0821,-0.1829,-0.1220,0.1220
1595879221,-0.9971,0.0015,0.0841,-0.1829,-0.0610,0.0000
1595879221,-0.9970,0.0005,0.0848,-0.1829,-0.0610,-0.2439
1595879221,-0.9977,-0.0001,0.0829,-0.2439,0.0610,-0.2439
1595879221,-0.9973,0.0016,0.0845,-0.2439,0.0610,-0.1220
1595879221,-0.9957,0.0013,0.0821,-0.3049,0.0000,-0.1220
1595879221,-0.9947,0.0012,0.0825,-0.3049,-0.0610,-0.0610
1595879221,-0.9986,-0.0002,0.0818,-0.2439,0.0000,0.0000
1595879221,-0.9984,0.0008,0.0826,-0.2439,0.0000,-0.1220
1595879221,-0.9974,0.0016,0.0828,-0.2439,0.0000,-0.1220
1595879221,-0.9989,0.0015,0.0818,-0.2439,0.0000,-0.1220
1595879221,-0.9984,-0.0009,0.0829,-0.1220,0.0000,0.0000
1595879221,-0.9963,0.0002,0.0817,-0.2439,0.0000,-0.0610
1595879221,-0.9983,-0.0003,0.0852,-0.2439,0.0000,-0.0610
1595879221,-0.9967,0.0011,0.0845,-0.2439,-0.0610,0.0000
1595879221,-0.9985,0.0016,0.0834,-0.2439,-0.0610,0.0000
1595879221,-0.9971,0.0017,0.0822,-0.2439,-0.0610,0.0000
1595879221,-0.9968,0.0027,0.0822,-0.1829,-0.0610,0.0000
1595879221,-0.9948,0.0010,0.0808,-0.2439,-0.0610,-0.1829
1595879221,-0.9962,-0.0006,0.0833,-0.3049,0.0000,-0.4268
1595879221,-0.9965,-0.0020,0.0842,-0.2439,0.0610,-0.5488
1595879221,-0.9980,0.0000,0.0828,-0.1829,-0.0610,-0.2439
1595879221,-0.9988,0.0027,0.0825,-0.1220,0.0000,0.2439
1595879221,-0.9972,0.0026,0.0819,-0.1829,0.0000,0.4268
1595879221,-0.9948,0.0027,0.0829,-0.0610,-0.0610,0.3049
1595879221,-0.9979,0.0018,0.0837,-0.1829,-0.0610,-0.1829
1595879221,-0.9962,0.0006,0.0822,-0.3049,0.0000,-0.6707
1595879221,-0.9969,-0.0005,0.0825,-0.3659,0.1829,-0.5488
1595879221,-0.9985,0.0012,0.0815,-0.2439,0.0000,-0.0610
1595879221,-0.9987,0.0032,0.0822,-0.1829,-0.0610,0.2439
1595879221,-0.9966,0.0007,0.0830,-0.1220,0.0610,0.0000
1595879221,-0.9985,-0.0008,0.0834,-0.2439,0.0610,-0.2439
1595879221,-0.9988,0.0001,0.0844,-0.3049,0.0610,-0.3659
1595879221,-0.9960,-0.0003,0.0822,-0.3049,0.0000,0.0000
1595879221,-0.9962,0.0023,0.0825,-0.3049,-0.1220,0.2439
1595879221,-0.9969,0.0012,0.0818,-0.1829,-0.0610,0.3659
1595879221,-0.9966,0.0009,0.0834,-0.1829,-0.0610,0.1220
1595879221,-0.9968,-0.0021,0.0837,-0.3049,0.0610,-0.4268
1595879221,-0.9973,-0.0024,0.0843,-0.2439,0.0610,-0.7317
1595879221,-0.9970,-0.0021,0.0811,-0.2439,0.0000,-0.4268
1595879221,-0.9976,-0.0013,0.0832,-0.2439,-0.0610,0.0000
1595879221,-0.9973,0.0014,0.0831,-0.0610,-0.0610,0.1829
1595879221,-0.9950,0.0027,0.0812,-0.1829,-0.1220,0.3049
1595879221,-0.9966,0.0026,0.0841,-0.1829,-0.0610,0.0610
1595879221,-0.9977,0.0015,0.0809,-0.1829,0.0000,-0.1829
1595879221,-0.9971,-0.0004,0.0832,-0.2439,0.0610,-0.3049
1595879221,-0.9966,0.0005,0.0841,-0.2439,0.0610,-0.3049
1595879221,-0.9966,0.0002,0.0828,-0.2439,0.0000,-0.3049
1595879221,-0.9984,0.0004,0.0829,-0.3049,0.0610,-0.2439
1595879221,-0.9973,0.0015,0.0817,-0.1829,-0.0610,0.0610
1595879221,-0.9956,0.0033,0.0836,-0.1829,-0.1220,0.3049
1595879221,-0.9958,0.0013,0.0847,-0.1829,-0.0610,0.0610
1595879221,-0.9980,-0.0024,0.0840,-0.2439,0.0610,-0.3049
1595879221,-0.9970,-0.0015,0.0831,-0.2439,0.0000,-0.3659
1595879221,-0.9966,0.0012,0.0837,-0.3049,0.0610,-0.2439
1595879221,-0.9974,-0.0003,0.0829,-0.3049,0.0000,0.0610
1595879221,-0.9994,0.0007,0.0825,-0.1829,0.0000,0.1220
1595879221,-0.9985,0.0011,0.0829,-0.1220,0.0000,0.1220
1595879221,-0.9987,0.0004,0.0835,-0.1220,0.0610,0.0610
1595879221,-0.9977,0.0001,0.0837,-0.3049,0.0000,-0.1220
1595879221,-0.9971,-0.0018,0.0836,-0.2439,-0.0610,-0.1829
1595879221,-0.9957,0.0007,0.0844,-0.1829,0.0000,-0.1829
1595879221,-0.9963,0.0008,0.0825,-0.2439,0.0000,-0.3049
1595879221,-0.9987,-0.0012,0.0826,-0.2439,0.0000,-0.3049
1595879221,-0.9970,-0.0002,0.0845,-0.2439,0.0000,0.0000
1595879221,-0.9969,0.0011,0.0857,-0.3049,0.0000,0.1829
1595879221,-0.9959,0.0014,0.0831,-0.1829,0.0000,0.2439
1595879221,-0.9959,0.0010,0.0809,-0.2439,0.0610,0.1220
1595879222,-0.9979,0.0023,0.0837,-0.2439,0.0000,-0.2439
1595879222,-0.9973,0.0005,0.0822,-0.2439,0.0000,-0.4268
1595879222,-0.9970,0.0004,0.0829,-0.2439,0.0610,-0.3049
1595879222,-0.9968,0.0009,0.0823,-0.1829,0.0000,-0.0610
1595879222,-0.9978,0.0023,0.0851,-0.1829,-0.0610,0.0610
1595879222,-0.9980,-0.0006,0.0844,-0.2439,-0.0610,-0.1220
1595879222,-0.9974,0.0004,0.0843,-0.2439,-0.0610,-0.1220
1595879222,-0.9982,0.0013,0.0865,-0.2439,-0.1220,0.0610
1595879222,-0.9963,0.0000,0.0825,-0.2439,-0.0610,0.0610
1595879222,-0.9974,0.0005,0.0836,-0.1829,0.0000,0.0610
1595879222,-0.9974,0.0013,0.0820,-0.1829,0.0000,-0.1220
1595879222,-0.9977,-0.0008,0.0814,-0.3049,0.1220,-0.4268
1595879222,-0.9982,-0.0005,0.0835,-0.2439,0.0610,-0.4268
1595879222,-0.9970,0.0002,0.0830,-0.1829,-0.0610,0.0000
1595879222,-0.9966,0.0021,0.0836,-0.1829,-0.0610,0.3659
1595879222,-0.9987,0.0022,0.0809,-0.1829,-0.0610,0.3049
1595879222,-0.9981,0.0018,0.0822,-0.1220,0.0000,-0.0610
1595879222,-0.9981,-0.0009,0.0817,-0.3049,0.0000,-0.4268
1595879222,-0.9997,-0.0021,0.0846,-0.3049,0.0610,-0.4268
1595879222,-0.9980,0.0000,0.0842,-0.2439,0.0000,-0.3049
1595879222,-0.9946,0.0024,0.0836,-0.1829,0.0000,-0.1220
1595879222,-0.9964,0.0026,0.0803,-0.1829,-0.0610,0.1220
1595879222,-0.9979,0.0015,0.0812,-0.1829,-0.0610,0.1220
1595879222,-0.9976,0.0038,0.0827,-0.2439,-0.0610,0.0000
1595879222,-0.9980,0.0027,0.0827,-0.2439,-0.0610,-0.0610
1595879222,-0.9977,0.0001,0.0829,-0.1829,-0.0610,-0.1829
1595879222,-0.9972,-0.0013,0.0826,-0.2439,0.0000,-0.3049
1595879222,-0.9969,-0.0001,0.0815,-0.2439,0.0000,-0.1829
1595879222,-0.9991,0.0006,0.0826,-0.2439,-0.0610,0.0000
1595879222,-0.9958,0.0026,0.0828,-0.1829,-0.0610,0.0610
1595879222,-0.9975,0.0018,0.0835,-0.2439,0.0000,0.0000
1595879222,-0.9970,-0.0001,0.0836,-0.2439,0.0000,-0.1220
1595879222,-0.9956,0.0022,0.0827,-0.3049,0.0000,-0.1829
1595879222,-0.9977,0.0005,0.0816,-0.3049,-0.0610,-0.1829
1595879222,-0.9977,0.0018,0.0830,-0.1829,0.0000,-0.1220
1595879222,-0.9981,0.0012,0.0842,-0.2439,0.0610,-0.0610
1595879222,-0.9979,0.0010,0.0840,-0.3659,0.0000,-0.1220
1595879222,-0.9961,0.0000,0.0832,-0.3049,0.0000,-0.2439
1595879222,-0.9964,-0.0018,0.0850,-0.2439,0.0000,-0.1220
1595879222,-0.9983,0.0031,0.0839,-0.2439,0.0000,0.0000
1595879222,-0.9971,0.0038,0.0824,-0.1829,0.0000,0.0000
1595879222,-0.9979,0.0030,0.0829,-0.2439,0.0000,-0.0610
1595879222,-0.9970,0.0015,0.0821,-0.2439,0.0610,-0.1829
1595879222,-0.9964,-0.0016,0.0824,-0.3049,0.0610,-0.3049
1595879222,-0.9974,-0.0010,0.0844,-0.2439,0.0610,-0.2439
1595879222,-0.9975,-0.0007,0.0820,-0.2439,0.0000,-0.0610
1595879222,-0.9956,0.0023,0.0801,-0.1829,-0.0610,0.1220
1595879222,-0.9985,0.0020,0.0831,-0.1829,-0.1220,0.1220
1595879222,-0.9954,-0.0003,0.0839,-0.2439,0.0000,0.0610
1595879222,-0.9952,0.0002,0.0845,-0.3659,0.0000,-0.1220
1595879222,-0.9954,0.0018,0.0840,-0.3049,0.0000,-0.2439
1595879222,-0.9976,-0.0023,0.0817,-0.3049,0.0000,-0.3049
1595879222,-0.9990,0.0013,0.0807,-0.3049,-0.0610,-0.1829
1595879222,-0.9987,0.0001,0.0840,-0.1829,-0.0610,-0.0610
1595879222,-0.9969,-0.0005,0.0826,-0.2439,-0.0610,0.0000
1595879222,-0.9979,0.0012,0.0833,-0.2439,0.0000,-0.0610
1595879222,-0.9983,0.0005,0.0837,-0.1829,-0.0610,0.0000
1595879222,-0.9982,0.0010,0.0820,-0.2439,0.0000,0.0610
1595879222,-0.9955,0.0002,0.0819,-0.1829,0.0000,-0.0610
1595879222,-0.9961,-0.0005,0.0840,-0.3049,0.0000,-0.1829
1595879222,-0.9979,-0.0006,0.0843,-0.2439,0.0000,-0.1829
1595879222,-0.9962,0.0009,0.0829,-0.1829,0.0610,-0.1220
1595879222,-0.9966,0.0013,0.0811,-0.1829,-0.0610,0.0000
1595879222,-0.9977,0.0020,0.0818,-0.3049,0.0000,0.0000
1595879222,-0.9981,-0.0008,0.0842,-0.1829,-0.0610,-0.1220
1595879222,-0.9944,-0.0020,0.0816,-0.1829,0.0000,-0.1829
1595879222,-0.9973,0.0009,0.0823,-0.2439,0.0000,-0.1829
1595879222,-0.9984,-0.0002,0.0830,-0.2439,-0.0610,0.0610
1595879222,-0.9966,0.0007,0.0859,-0.2439,-0.0610,0.0610
1595879222,-0.9984,0.0020,0.0834,-0.1829,-0.0610,0.0000
1595879222,-0.9982,0.0001,0.0827,-0.3049,-0.0610,-0.3049
1595879222,-0.9972,-0.0012,0.0805,-0.3049,0.0000,-0.4268
1595879222,-0.9962,0.0010,0.0836,-0.2439,0.0000,-0.3049
1595879222,-0.9984,0.0027,0.0817,-0.2439,0.0000,-0.1220
1595879222,-1.0003,0.0007,0.0826,-0.1829,0.0000,0.1220
1595879222,-0.9979,0.0013,0.0844,-0.1829,0.0610,0.1220
1595879222,-0.9971,0.0028,0.0821,-0.2439,-0.0610,0.0000
1595879222,-0.9991,0.0027,0.0825,-0.3659,-0.0610,-0.1220
1595879222,-0.9975,0.0008,0.0839,-0.3049,0.0610,-0.2439
1595879222,-0.9968,0.0009,0.0835,-0.1220,0.0000,-0.1829
1595879222,-1.0005,0.0009,0.0809,-0.1829,0.0000,-0.0610
1595879222,-0.9977,0.0005,0.0839,-0.2439,0.0610,0.0000
1595879222,-0.9979,0.0004,0.0843,-0.1220,0.0000,0.0610
1595879222,-0.9992,0.0025,0.0814,-0.1829,0.0000,0.0000
1595879222,-0.9968,0.0020,0.0826,-0.3049,0.0000,-0.2439
1595879222,-0.9949,-0.0009,0.0845,-0.3049,-0.0610,-0.4268
1595879222,-0.9977,-0.0001,0.0825,-0.3049,-0.0610,-0.3049
1595879222,-0.9989,-0.0005,0.0822,-0.2439,0.0000,-0.0610
1595879222,-0.9960,0.0015,0.0814,-0.0610,0.0000,0.1829
1595879222,-0.9966,0.0033,0.0837,-0.1220,-0.0610,0.2439
1595879222,-0.9979,0.0018,0.0823,-0.1829,0.0610,0.0000
1595879222,-0.9969,0.0000,0.0823,-0.2439,0.0610,-0.3049
1595879222,-0.9975,-0.0004,0.0814,-0.3049,0.0610,-0.4268
1595879222,-0.9975,-0.0017,0.0831,-0.2439,0.0610,-0.2439
1595879222,-0.9976,0.0007,0.0835,-0.2439,-0.0610,-0.0610
1595879222,-0.9972,0.0018,0.0817,-0.2439,0.0000,0.0000
1595879222,-0.9969,0.0012,0.0828,-0.1829,-0.0610,0.0610
1595879222,-0.9965,-0.0001,0.0837,-0.2439,0.0000,-0.1220
1595879222,-0.9960,-0.0007,0.0816,-0.2439,0.0000,-0.1829
1595879222,-0.9962,0.0005,0.0837,-0.2439,-0.0610,-0.1220
1595879222,-0.9987,0.0018,0.0848,-0.1829,0.0000,0.1220
1595879222,-0.9962,0.0013,0.0828,-0.1829,-0.0610,0.0610
1595879223,-0.9978,0.0010,0.0815,-0.3659,-0.0610,-0.1220
1595879223,-0.9966,0.0002,0.0816,-0.3049,-0.0610,-0.3659
1595879223,-0.9977,-0.0007,0.0856,-0.3049,-0.0610,-0.3049
1595879223,-0.9980,0.0011,0.0840,-0.3049,-0.0610,-0.0610
1595879223,-0.9972,0.0009,0.0826,-0.1829,-0.0610,0.0000
1595879223,-0.9988,0.0024,0.0843,-0.1829,0.0610,0.1220
1595879223,-0.9982,0.0026,0.0847,-0.1829,0.0000,0.0610
1595879223,-0.9982,0.0012,0.0865,-0.2439,-0.0610,-0.2439
1595879223,-0.9986,0.0000,0.0831,-0.1829,0.0000,-0.2439
1595879223,-0.9979,0.0021,0.0850,-0.1829,-0.0610,-0.1220
1595879223,-0.9956,0.0017,0.0842,-0.3049,-0.1220,-0.1220
1595879223,-0.9963,0.0012,0.0828,-0.2439,-0.0610,-0.1220
1595879223,-0.9958,0.0014,0.0837,-0.2439,0.0000,-0.0610
1595879223,-0.9957,0.0037,0.0826,-0.1829,-0.0610,0.0000
1595879223,-0.9982,0.0004,0.0818,-0.2439,-0.1220,0.0000
1595879223,-0.9973,-0.0018,0.0842,-0.1829,0.0000,-0.0610
1595879223,-0.9989,-0.0007,0.0853,-0.3049,0.0000,-0.1220
1595879223,-0.9978,-0.0009,0.0832,-0.3049,-0.0610,-0.1220
1595879223,-0.9980,0.0013,0.0811,-0.2439,-0.0610,-0.1220
1595879223,-0.9984,0.0034,0.0844,-0.3659,0.0000,0.1220
1595879223,-0.9977,0.0023,0.0828,-0.1829,-0.0610,0.1829
1595879223,-0.9963,0.0018,0.0811,-0.1220,0.0000,-0.0610
1595879223,-0.9967,0.0017,0.0828,-0.2439,0.0610,-0.1829
1595879223,-0.9977,-0.0009,0.0840,-0.2439,0.0610,-0.3049
1595879223,-0.9975,0.0002,0.0823,-0.2439,0.0610,-0.3049
1595879223,-0.9971,-0.0003,0.0819,-0.1829,0.0000,-0.3049
1595879223,-0.9981,0.0008,0.0826,-0.2439,-0.0610,-0.0610
1595879223,-0.9959,0.0019,0.0818,-0.2439,-0.0610,0.1829
1595879223,-0.9981,0.0027,0.0841,-0.3049,0.0000,0.1220
1595879223,-0.9979,0.0000,0.0846,-0.2439,0.0000,0.0000
1595879223,-0.9975,0.0015,0.0839,-0.2439,-0.0610,-0.0610
1595879223,-0.9980,0.0032,0.0821,-0.1829,0.0000,-0.1220
1595879223,-0.9964,-0.0001,0.0820,-0.1829,0.0610,-0.2439
1595879223,-0.9972,0.0003,0.0808,-0.3049,-0.0610,-0.1829
1595879223,-0.9952,0.0021,0.0819,-0.2439,-0.0610,-0.0610
1595879223,-0.9962,0.0005,0.0836,-0.1829,0.0000,-0.1220
1595879223,-0.9966,-0.0013,0.0834,-0.2439,0.0000,-0.1829
1595879223,-0.9975,0.0004,0.0838,-0.2439,-0.0610,-0.1220
1595879223,-0.9979,0.0007,0.0829,-0.2439,0.0000,-0.0610
1595879223,-0.9990,0.0001,0.0814,-0.3659,0.0000,-0.0610
1595879223,-0.9967,0.0025,0.0831,-0.1829,-0.0610,0.0610
1595879223,-0.9965,0.0029,0.0851,-0.2439,-0.0610,0.0610
1595879223,-0.9957,0.0004,0.0824,-0.2439,0.0000,-0.1220
1595879223,-0.9951,-0.0011,0.0828,-0.3049,-0.0610,-0.3049
1595879223,-0.9976,0.0009,0.0828,-0.3049,-0.0610,-0.2439
1595879223,-0.9984,0.0022,0.0816,-0.2439,0.0610,0.0000
1595879223,-0.9962,-0.0004,0.0833,-0.1829,-0.0610,0.0000
1595879223,-0.9966,0.0013,0.0830,-0.2439,0.0000,-0.1220
1595879223,-0.9973,0.0010,0.0824,-0.2439,0.0000,-0.1220
1595879223,-0.9966,0.0006,0.0825,-0.2439,0.0000,-0.1220
1595879223,-0.9973,-0.0003,0.0820,-0.1829,-0.0610,-0.0610
1595879223,-0.9975,-0.0002,0.0851,-0.1829,-0.0610,0.0610
1595879223,-0.9974,0.0029,0.0827,-0.1829,0.0000,0.1829
1595879223,-0.9993,0.0015,0.0822,-0.1829,0.0000,0.0000
1595879223,-0.9977,0.0002,0.0818,-0.3049,-0.0610,-0.3659
1595879223,-0.9954,0.0004,0.0820,-0.3659,0.0610,-0.3659
1595879223,-0.9984,0.0000,0.0843,-0.3049,-0.0610,-0.2439
1595879223,-0.9986,-0.0015,0.0847,-0.2439,-0.1220,-0.1220
1595879223,-0.9974,-0.0001,0.0840,-0.2439,-0.0610,0.0000
1595879223,-0.9988,0.0018,0.0833,-0.1829,0.0000,0.0610
1595879223,-0.9980,0.0014,0.0833,-0.2439,0.0000,0.0610
1595879223,-0.9960,0.0018,0.0828,-0.1829,0.0000,-0.0610
1595879223,-0.9973,0.0018,0.0821,-0.2439,0.0000,-0.0610
1595879223,-0.9982,0.0032,0.0827,-0.2439,-0.0610,-0.1829
1595879223,-0.9973,0.0005,0.0812,-0.3049,-0.0610,-0.2439
1595879223,-0.9982,0.0001,0.0829,-0.3049,0.0000,-0.2439
1595879223,-0.9977,0.0007,0.0811,-0.2439,-0.0610,-0.1829
1595879223,-0.9973,0.0012,0.0824,-0.2439,0.0000,-0.1220
1595879223,-0.9965,0.0013,0.0839,-0.3049,0.0000,-0.0610
1595879223,-0.9974,0.0013,0.0825,-0.1829,0.0610,-0.0610
1595879223,-0.9970,-0.0001,0.0825,-0.2439,0.0000,-0.0610
1595879223,-0.9965,0.0010,0.0833,-0.3049,-0.0610,0.0000
1595879223,-0.9971,0.0014,0.0853,-0.1829,0.0000,0.0610
1595879223,-0.9984,0.0033,0.0844,-0.1220,0.0610,0.0610
1595879223,-0.9979,0.0010,0.0829,-0.1829,-0.0610,-0.1220
1595879223,-0.9994,0.0009,0.0821,-0.2439,-0.0610,-0.3049
1595879223,-0.9990,0.0026,0.0851,-0.2439,0.0000,-0.3659
1595879223,-0.9958,-0.0009,0.0840,-0.1829,-0.0610,-0.1220
1595879223,-0.9951,-0.0002,0.0815,-0.0610,-0.0610,-0.0610
1595879223,-0.9982,0.0027,0.0833,-0.1829,-0.0610,0.0610
1595879223,-0.9966,0.0021,0.0851,-0.2439,0.0000,0.0610
1595879223,-0.9976,0.0020,0.0847,-0.2439,0.0000,0.0000
1595879223,-0.9984,0.0018,0.0825,-0.1829,0.0000,-0.0610
1595879223,-0.9978,0.0023,0.0823,-0.2439,0.0000,-0.0610
1595879223,-0.9970,0.0002,0.0823,-0.3659,-0.0610,-0.1829
1595879223,-0.9966,-0.0007,0.0842,-0.2439,0.0000,-0.3049
1595879223,-0.9966,0.0000,0.0839,-0.1829,0.0000,-0.2439
1595879223,-0.9980,0.0030,0.0825,-0.2439,0.0000,0.0610
1595879223,-0.9966,0.0010,0.0833,-0.2439,-0.0610,0.1220
1595879223,-0.9969,0.0001,0.0846,-0.3049,-0.0610,0.0000
1595879223,-0.9968,-0.0001,0.0828,-0.3659,-0.0610,-0.1220
1595879223,-0.9977,-0.0012,0.0834,-0.2439,-0.0610,-0.2439
1595879223,-0.9982,0.0010,0.0856,-0.1829,0.0000,-0.0610
1595879223,-0.9966,0.0010,0.0825,-0.2439,0.0610,0.1220
1595879223,-0.9968,0.0006,0.0843,-0.2439,-0.0610,0.1829
1595879223,-0.9976,0.0012,0.0822,-0.3049,0.0000,0.0000
1595879223,-0.9974,0.0013,0.0823,-0.3049,0.0000,-0.3049
1595879223,-0.9984,0.0007,0.0839,-0.2439,0.0000,-0.3659
1595879223,-0.9985,0.0015,0.0839,-0.1220,0.0000,-0.1829
1595879223,-0.9959,0.0002,0.0825,-0.2439,0.0000,0.0610
1595879223,-0.9941,0.0025,0.0837,-0.1220,-0.0610,0.1220
1595879224,-0.9973,0.0029,0.0837,-0.1829,-0.0610,-0.0610
1595879224,-0.9976,0.0007,0.0848,-0.2439,-0.0610,-0.1220
1595879224,-0.9977,0.0016,0.0825,-0.1220,-0.0610,-0.1829
1595879224,-0.9971,0.0013,0.0809,-0.1220,-0.0610,-0.0610
1595879224,-0.9966,-0.0010,0.0820,-0.2439,0.0000,0.0000
1595879224,-0.9956,0.0018,0.0816,-0.2439,-0.0610,0.0610
1595879224,-0.9955,0.0015,0.0808,-0.2439,0.0000,-0.1220
1595879224,-0.9970,-0.0010,0.0831,-0.3049,0.0000,-0.3659
1595879224,-0.9974,0.0010,0.0822,-0.2439,0.0000,-0.2439
1595879224,-0.9961,-0.0012,0.0829,-0.3049,0.0000,-0.0610
1595879224,-0.9985,0.0006,0.0845,-0.2439,0.0000,0.1220
1595879224,-0.9982,0.0006,0.0832,-0.2439,-0.0610,0.1829
1595879224,-0.9977,0.0012,0.0857,-0.2439,0.0000,0.1220
1595879224,-0.9985,0.0007,0.0842,-0.2439,-0.0610,-0.1220
1595879224,-0.9993,-0.0005,0.0840,-0.2439,-0.0610,-0.2439
1595879224,-0.9974,0.0010,0.0856,-0.2439,0.0000,-0.2439
1595879224,-0.9966,0.0004,0.0837,-0.3049,0.0000,-0.1829
1595879224,-0.9973,-0.0012,0.0802,-0.2439,0.0000,-0.1829
1595879224,-0.9984,0.0009,0.0801,-0.1829,0.0000,-0.0610
1595879224,-0.9971,0.0034,0.0835,-0.1829,0.0000,0.0610
1595879224,-0.9979,0.0027,0.0831,-0.1220,0.0000,0.0000
1595879224,-0.9982,0.0013,0.0817,-0.1829,0.0000,-0.1829
1595879224,-0.9968,0.0000,0.0827,-0.3049,0.0000,-0.1829
1595879224,-0.9977,0.0001,0.0815,-0.3659,0.0000,-0.1829
1595879224,-0.9964,0.0010,0.0825,-0.3049,-0.1220,-0.1220
1595879224,-0.9965,0.0012,0.0851,-0.2439,-0.0610,0.0000
1595879224,-0.9990,0.0017,0.0836,-0.1829,0.0000,0.1220
1595879224,-0.9984,-0.0009,0.0833,-0.2439,0.0000,0.0000
1595879224,-0.9977,-0.0007,0.0828,-0.2439,0.0610,-0.1829
1595879224,-0.9966,0.0010,0.0844,-0.2439,0.0000,-0.3049
1595879224,-0.9974,0.0008,0.0854,-0.3049,0.0000,-0.2439
1595879224,-0.9977,0.0006,0.0837,-0.2439,0.0000,-0.1220
1595879224,-0.9964,0.0004,0.0825,-0.1220,0.0000,0.0000
1595879224,-0.9988,0.0008,0.0817,-0.1829,-0.0610,0.0610
1595879224,-0.9986,0.0016,0.0823,-0.1220,0.0000,0.0000
1595879224,-0.9966,0.0028,0.0844,-0.2439,-0.0610,-0.0610
1595879224,-0.9983,0.0009,0.0836,-0.2439,0.0000,-0.0610
1595879224,-0.9984,0.0002,0.0845,-0.2439,0.0610,-0.1220
1595879224,-0.9955,0.0015,0.0836,-0.2439,-0.0610,-0.2439
1595879224,-0.9961,0.0008,0.0839,-0.3049,0.0000,-0.1829
1595879224,-0.9954,0.0018,0.0826,-0.2439,-0.1220,-0.0610
1595879224,-0.9990,0.0031,0.0835,-0.1220,-0.0610,0.0610
1595879224,-0.9977,-0.0007,0.0840,-0.1829,0.0610,0.0610
1595879224,-0.9976,0.0005,0.0807,-0.1829,0.0000,-0.1829
1595879224,-0.9968,0.0007,0.0825,-0.3049,-0.0610,-0.2439
1595879224,-0.9973,-0.0005,0.0826,-0.3049,-0.0610,-0.2439
1595879224,-0.9979,0.0005,0.0816,-0.1829,-0.0610,-0.1220
1595879224,-0.9973,0.0015,0.0839,-0.1220,0.0000,0.1220
1595879224,-0.9967,0.0001,0.0829,-0.1829,-0.0610,0.1220
1595879224,-0.9969,0.0011,0.0831,-0.2439,-0.0610,-0.0610
1595879224,-0.9980,-0.0001,0.0846,-0.2439,0.0610,-0.1829
1595879224,-0.9977,-0.0001,0.0859,-0.3049,0.0610,-0.2439
1595879224,-0.9973,-0.0001,0.0847,-0.2439,-0.0610,-0.1220
1595879224,-0.9963,0.0596,0.0875,-0.2439,0.0000,-0.2439
1595879224,-1.0027,0.0921,0.0904,-0.1829,0.4878,-2.3780
1595879224,-0.9995,-0.0126,0.0770,-2.9268,1.2805,-17.0122
1595879224,-0.9903,-0.1047,0.0846,-6.0976,1.5244,-33.4146
1595879224,-1.0023,-0.0767,0.0742,-3.9634,1.1585,-28.5976
1595879224,-0.9954,-0.0670,0.0857,1.8293,1.8293,-15.7317
1595879224,-0.9916,-0.0658,0.0887,3.5976,2.5000,-23.7805
1595879224,-1.0008,-0.0381,0.0992,2.1951,1.5854,-14.6951
1595879224,-0.9861,-0.1217,0.0930,2.1341,1.0366,-11.4024
1595879224,-0.9630,-0.2084,0.0688,1.5244,1.1585,-12.6829
1595879224,-1.0270,0.1707,-0.0281,6.4634,-1.5244,7.4390
1595879224,-1.0156,0.1506,-0.0574,26.5244,-5.8537,60.4878
1595879224,-1.0074,0.1205,0.0847,34.0854,-5.7317,49.0244
1595879224,-0.9883,-0.1118,0.2111,41.7073,-4.2683,31.2805
1595879224,-0.9977,-0.3798,0.0161,41.0976,-0.0610,-9.3293
1595879224,-0.9934,0.1146,0.1600,39.9390,2.4390,-7.5610
1595879224,-0.9957,0.0080,0.1660,52.0732,1.8293,4.3293
1595879224,-1.0029,-0.1319,0.2384,39.1463,6.5854,-39.7561
1595879224,-1.0685,-0.1902,0.2982,30.8537,8.4146,-68.7805
1595879224,-1.2906,-0.1665,0.2247,27.6829,13.7195,-89.3902
1595879224,-1.1667,-0.1171,0.2565,24.5732,11.2805,-129.3293
1595879224,-1.1547,-0.1985,0.3297,21.7073,2.0732,-140.4878
1595879224,-1.1382,-0.1804,0.3969,17.4390,-1.5244,-146.9512
1595879224,-1.0960,-0.2200,0.3884,16.5854,-6.6463,-122.1951
1595879224,-1.0263,-0.3519,0.3701,16.4024,-6.1585,-98.2927
1595879224,-0.9150,-0.5120,0.3676,21.0366,0.3659,-81.3415
1595879224,-0.8273,-0.6102,0.3478,32.6829,11.6463,-65.7927
1595879224,-0.8219,-0.6028,0.3151,50.9756,27.0122,-47.2561
1595879224,-0.9449,-0.5738,0.2639,72.1951,44.7561,-30.6098
1595879224,-1.0294,-0.4995,0.2029,90.4268,61.1585,-22.5000
1595879224,-1.0575,-0.3987,0.1735,104.8171,72.5000,-18.4146
1595879224,-1.0413,-0.3158,0.1956,114.0854,81.1585,-20.0610
1595879224,-0.9791,-0.3021,0.2288,118.9634,88.5366,-22.3171
1595879224,-0.8545,-0.3643,0.2071,120.1220,95.9146,-21.6463
1595879224,-0.7922,-0.4389,0.1634,121.8902,105.3659,-21.2195
1595879224,-0.8256,-0.4496,0.1210,127.6220,118.1098,-25.3049
1595879224,-0.8972,-0.3867,0.0854,137.4390,130.7927,-30.3049
1595879224,-0.9916,-0.3718,0.0388,147.2561,141.0976,-41.8293
1595879224,-1.0551,-0.3559,-0.0196,152.0122,147.5610,-55.7927
1595879224,-1.0589,-0.3133,-0.0347,155.0000,148.9024,-61.4634
1595879224,-1.0275,-0.3115,-0.0432,156.6463,146.6463,-64.0244
1595879224,-0.9905,-0.3126,-0.0646,154.7561,142.3781,-66.2805
1595879224,-0.9989,-0.2061,-0.0421,150.0610,137.3781,-64.7561
1595879224,-0.9834,-0.0762,-0.0021,142.8049,129.4512,-46.3415
1595879224,-0.9293,-0.1138,-0.0089,130.4268,117.1951,-18.4756
1595879224,-0.9065,-0.2307,-0.0336,113.5976,103.9634,-1.0976
1595879224,-0.9077,-0.2974,-0.0596,101.4024,90.4268,15.7317
1595879224,-0.9044,-0.3461,-0.0915,97.8659,76.2195,32.0122
1595879225,-0.9272,-0.4023,-0.1377,99.6341,62.2561,41.9512
1595879225,-0.9991,-0.4393,-0.1942,105.2439,49.0854,45.9756
1595879225,-1.0478,-0.3839,-0.2496,113.9634,35.7927,48.1707
1595879225,-1.0453,-0.2762,-0.2577,123.4146,21.3415,53.8415
1595879225,-1.0414,-0.2126,-0.2447,129.6342,7.9878,53.0488
1595879225,-1.0126,-0.1530,-0.2295,131.2805,-1.9512,38.8415
1595879225,-0.9429,-0.1668,-0.2421,130.3659,-8.7195,21.2805
1595879225,-0.8561,-0.2401,-0.2292,127.0122,-11.4024,1.6463
1595879225,-0.7883,-0.2606,-0.1761,126.3415,-8.8415,-16.4634
1595879225,-0.7900,-0.2590,-0.1488,130.0610,-3.1707,-17.8659
1595879225,-0.7977,-0.3094,-0.1832,132.1951,3.5366,-4.6341
1595879225,-0.7967,-0.3538,-0.2302,133.0488,9.4512,10.9146
1595879225,-0.8538,-0.3914,-0.2332,136.9512,15.1829,15.1829
1595879225,-0.8946,-0.4095,-0.2338,141.5854,20.1220,13.9024
1595879225,-0.9142,-0.4213,-0.2418,146.0366,22.6220,11.0976
1595879225,-0.9453,-0.4182,-0.2602,148.7195,23.6585,5.5488
1595879225,-0.9426,-0.3772,-0.2604,149.3902,23.3537,1.2195
1595879225,-0.9196,-0.3466,-0.2429,147.9878,21.4634,2.2561
1595879225,-0.9232,-0.3438,-0.2397,143.9634,19.4512,3.3537
1595879225,-0.9280,-0.3462,-0.2410,137.5610,18.1707,3.5366
1595879225,-0.9277,-0.3665,-0.2402,130.4878,15.8537,10.3659
1595879225,-0.9409,-0.4024,-0.2411,124.0244,12.7439,18.0488
1595879225,-0.9239,-0.4150,-0.2404,119.0244,9.7561,22.4390
1595879225,-0.8831,-0.4302,-0.2260,115.4878,6.4024,26.8902
1595879225,-0.8818,-0.4611,-0.2305,112.6829,3.9634,27.5000
1595879225,-0.9059,-0.4534,-0.2502,110.6098,3.0488,22.9878
1595879225,-0.9257,-0.3927,-0.2523,108.9024,1.4024,22.8659
1595879225,-0.9442,-0.3342,-0.2354,105.3659,-1.2805,25.5488
1595879225,-0.9339,-0.2856,-0.2238,97.5610,-5.2439,29.8171
1595879225,-0.9081,-0.2720,-0.2086,86.1585,-10.2439,37.2561
1595879225,-0.8781,-0.3029,-0.1948,72.0732,-14.4512,40.1829
1595879225,-0.8535,-0.3122,-0.1736,59.3293,-16.4024,37.1341
1595879225,-0.8359,-0.3214,-0.1757,49.2683,-17.3171,40.4268
1595879225,-0.8605,-0.3116,-0.1748,40.6098,-16.5854,44.9390
1595879225,-0.9035,-0.2742,-0.1743,34.8171,-15.1220,47.0122
1595879225,-0.9489,-0.2610,-0.1904,30.3049,-14.5732,49.4512
1595879225,-1.0104,-0.2399,-0.1989,25.7317,-14.3293,42.5610
1595879225,-1.0181,-0.1924,-0.1915,23.1098,-15.0000,30.7927
1595879225,-0.9960,-0.2201,-0.1901,19.3293,-17.7439,26.6463
1595879225,-1.0018,-0.2039,-0.1476,15.1220,-18.9024,10.7317
1595879225,-1.0054,-0.1987,-0.1260,13.3537,-20.3659,2.3780
1595879225,-1.0016,-0.2058,-0.1252,10.1829,-22.3780,-1.0366
1595879225,-0.9693,-0.2247,-0.0979,7.0732,-24.6341,-7.5000
1595879225,-0.9334,-0.2344,-0.0684,4.1463,-27.0732,-11.5854
1595879225,-0.9250,-0.2347,-0.0374,1.3415,-29.0244,-11.5854
1595879225,-0.8892,-0.2562,-0.0336,-2.0122,-31.1585,-5.6098
1595879225,-0.8280,-0.3319,-0.0328,-6.0366,-33.2927,0.9146
1595879225,-0.7816,-0.4077,-0.0103,-5.4268,-32.6829,-7.3780
1595879225,-0.8327,-0.3917,-0.0012,0.1220,-27.8659,-21.7683
1595879225,-0.8480,-0.3015,0.0022,6.2195,-21.2195,-21.5244
1595879225,-0.9160,-0.2441,0.0091,12.3171,-14.2073,-14.0854
1595879225,-0.9565,-0.2007,0.0067,15.1829,-5.6707,-14.3902
1595879225,-0.9450,-0.2009,0.0142,15.4268,2.2561,-17.9268
1595879225,-0.9094,-0.2158,0.0280,14.6951,10.0610,-27.8049
1595879225,-0.8958,-0.2283,0.0391,14.1463,18.0488,-37.3780
1595879225,-0.9052,-0.2239,0.0359,14.4512,25.7317,-43.1707
1595879225,-0.9194,-0.2432,0.0353,15.1829,32.0732,-46.0976
1595879225,-0.9323,-0.2661,0.0337,16.4024,36.0366,-47.3171
1595879225,-0.9306,-0.2560,0.0380,18.1098,37.2561,-46.2805
1595879225,-0.9295,-0.2647,0.0318,20.0000,35.9146,-44.2073
1595879225,-0.9512,-0.2724,0.0286,21.2195,32.9878,-42.9878
1595879225,-0.9727,-0.2554,0.0287,22.2561,27.9878,-37.6829
1595879225,-0.9675,-0.2465,0.0200,22.8049,21.5244,-31.4024
1595879225,-0.9509,-0.2584,0.0206,22.4390,15.1220,-28.3537
1595879225,-0.9233,-0.2626,0.0222,21.4024,9.9390,-23.1098
1595879225,-0.9128,-0.2764,0.0187,20.1829,6.9512,-16.1585
1595879225,-0.9125,-0.2804,0.0109,19.2683,6.5244,-10.3049
1595879225,-0.9269,-0.2874,0.0054,18.7195,7.1341,-4.7561
1595879225,-0.9548,-0.2852,0.0098,18.7195,8.0488,-4.1463
1595879225,-0.9682,-0.2787,0.0082,18.9024,8.2317,-5.4268
1595879225,-0.9816,-0.2965,0.0067,19.1463,6.8902,-6.9512
1595879225,-1.0108,-0.2994,0.0051,19.2073,4.5732,-9.2683
1595879225,-1.0300,-0.2878,0.0014,19.2683,1.2195,-8.5976
1595879225,-1.0076,-0.2891,-0.0033,19.2073,-2.5610,-8.1098
1595879225,-0.9704,-0.2858,0.0070,18.5366,-5.4878,-5.9756
1595879225,-0.9449,-0.2825,0.0104,17.2561,-6.2805,1.3415
1595879225,-0.9446,-0.2952,0.0040,15.7317,-4.3902,7.6220
1595879225,-0.9566,-0.2961,0.0041,14.5122,-1.0366,9.9390
1595879225,-0.9677,-0.3075,-0.0004,14.4512,1.9512,9.3293
1595879225,-0.9741,-0.3144,0.0021,14.8171,4.0854,6.7073
1595879225,-0.9775,-0.3050,0.0081,15.5488,4.9390,4.8780
1595879225,-0.9695,-0.2952,0.0086,16.5854,4.7561,3.9634
1595879225,-0.9606,-0.3101,0.0111,17.5610,4.2073,2.3780
1595879225,-0.9571,-0.3140,0.0076,18.2927,4.1463,0.3049
1595879225,-0.9530,-0.3074,0.0060,18.5976,4.0854,1.5244
1595879225,-0.9539,-0.3131,0.0042,18.7805,4.3902,2.4390
1595879225,-0.9515,-0.3294,0.0027,18.9024,5.0000,0.6098
1595879225,-0.9510,-0.3455,-0.0007,19.0854,5.4268,-3.2927
1595879225,-0.9490,-0.3456,-0.0016,19.8171,5.5488,-7.5000
1595879225,-0.9447,-0.3370,-0.0018,20.6098,5.1829,-10.1220
1595879225,-0.9304,-0.3281,-0.0022,20.8537,4.7561,-11.7683
1595879225,-0.9061,-0.3312,0.0037,20.1829,4.5732,-12.5610
1595879225,-0.8856,-0.3301,0.0080,18.6585,5.0610,-11.5244
1595879225,-0.8941,-0.3321,0.0101,16.8293,6.0976,-8.2317
1595879225,-0.9069,-0.3397,0.0120,15.2439,6.9512,-4.6951
1595879225,-0.9276,-0.3517,0.0051,14.2683,6.7073,-0.7927
1595879225,-0.9367,-0.3413,-0.0012,13.7805,5.3659,2.6220
1595879225,-0.9294,-0.3330,-0.0012,13.9024,2.7439,5.7317
1595879225,-0.9184,-0.3362,-0.0089,14.1463,0.0610,7.3780
1595879225,-0.9077,-0.3486,-0.0168,14.2683,-1.6463,6.0366
1595879226,-0.9095,-0.3490,-0.0193,14.2683,-2.2561,4.2683
1595879226,-0.9171,-0.3405,-0.0150,14.2683,-2.2561,3.7805
1595879226,-0.9182,-0.3433,-0.0154,13.9634,-1.6463,2.5610
1595879226,-0.9172,-0.3384,-0.0094,13.4146,-0.7927,0.9146
1595879226,-0.9243,-0.3361,-0.0080,12.5000,0.1829,1.2195
1595879226,-0.9303,-0.3443,-0.0077,11.2195,1.5244,0.5488
1595879226,-0.9281,-0.3447,-0.0075,10.0000,2.7439,0.3659
1595879226,-0.9229,-0.3461,-0.0092,9.0854,3.7805,0.6707
1595879226,-0.9228,-0.3483,-0.0114,8.6585,4.7561,0.0610
1595879226,-0.9218,-0.3489,-0.0063,8.4756,5.5488,-2.1341
1595879226,-0.9266,-0.3503,-0.0027,8.5366,6.2195,-5.8537
1595879226,-0.9439,-0.3458,-0.0015,8.4756,6.5854,-9.2683
1595879226,-0.9645,-0.3348,-0.0007,8.0488,6.4634,-11.0366
1595879226,-0.9618,-0.3427,0.0012,7.4390,5.7317,-12.9878
1595879226,-0.9536,-0.3444,0.0047,6.2805,4.7561,-15.3049
1595879226,-0.9699,-0.3370,0.0114,5.1220,3.9634,-14.3293
1595879226,-0.9799,-0.3286,0.0127,3.5366,2.8659,-10.7927
1595879226,-0.9819,-0.3326,0.0108,1.7683,1.6463,-7.9878
1595879226,-0.9799,-0.3400,0.0105,-0.0610,0.1220,-5.6098
1595879226,-0.9850,-0.3338,0.0102,-1.5854,-1.7683,-1.3415
1595879226,-0.9722,-0.3238,0.0082,-2.6829,-3.7195,2.5610
1595879226,-0.9474,-0.3344,0.0138,-3.2927,-5.4878,4.2683
1595879226,-0.9242,-0.3412,0.0202,-3.9024,-5.9146,3.7195
1595879226,-0.9021,-0.3353,0.0230,-3.8415,-4.9390,3.6585
1595879226,-0.8862,-0.3359,0.0256,-3.4146,-3.0488,4.5732
1595879226,-0.8907,-0.3437,0.0275,-2.6220,-0.2439,4.4512
1595879226,-0.9147,-0.3429,0.0280,-1.1585,2.3171,2.7439
1595879226,-0.9357,-0.3350,0.0230,0.5488,3.7805,0.9146
1595879226,-0.9459,-0.3322,0.0262,2.0732,3.8415,-0.7927
1595879226,-0.9556,-0.3294,0.0264,2.9878,2.7439,-2.0732
1595879226,-0.9540,-0.3154,0.0247,3.1707,1.2195,-1.5244
1595879226,-0.9429,-0.3115,0.0302,2.6220,-0.5488,1.2805
1595879226,-0.9351,-0.3134,0.0315,1.6463,-1.7073,4.6951
1595879226,-0.9297,-0.3134,0.0341,0.3049,-2.1951,8.1707
1595879226,-0.9266,-0.3224,0.0352,-0.6707,-1.8902,9.3902
1595879226,-0.9226,-0.3321,0.0375,-0.9146,-0.9146,7.3171
1595879226,-0.9240,-0.3375,0.0365,-0.3049,0.0610,5.7317
1595879226,-0.9293,-0.3379,0.0366,0.9756,1.0976,4.0244
1595879226,-0.9343,-0.3376,0.0372,2.6220,1.7073,1.7683
1595879226,-0.9518,-0.3397,0.0385,4.3293,1.7683,-1.2805
1595879226,-0.9651,-0.3267,0.0320,5.6098,1.2805,-3.2927
1595879226,-0.9656,-0.3239,0.0302,6.1585,-0.0610,-2.5610
1595879226,-0.9622,-0.3197,0.0271,5.8537,-1.3415,-1.0366
1595879226,-0.9610,-0.3215,0.0239,4.8780,-2.2561,1.0976
1595879226,-0.9614,-0.3275,0.0225,3.7805,-2.3780,1.5244
1595879226,-0.9465,-0.3252,0.0240,2.9268,-1.8293,0.4878
1595879226,-0.9372,-0.3347,0.0333,2.5610,-0.9756,-0.7927
1595879226,-0.9416,-0.3342,0.0375,2.5610,0.4878,-1.8902
1595879226,-0.9495,-0.3266,0.0465,3.0488,1.7683,-2.3780
1595879226,-0.9506,-0.3304,0.0529,4.1463,2.3780,-3.2317
1595879226,-0.9455,-0.3360,0.0565,5.4268,2.2561,-4.0854
1595879226,-0.9423,-0.3315,0.0500,6.5244,1.5854,-3.7805
1595879226,-0.9398,-0.3295,0.0457,7.6829,0.6098,-2.1951
1595879226,-0.9363,-0.3367,0.0414,8.8415,-0.3049,-0.9756
1595879226,-0.9197,-0.3320,0.0370,9.8780,-0.9756,-0.7317
1595879226,-0.9014,-0.3361,0.0378,10.6707,-0.9756,-1.5854
1595879226,-0.8899,-0.3389,0.0348,11.1585,-0.1220,-3.1098
1595879226,-0.8855,-0.3407,0.0374,11.7073,1.5244,-4.2683
1595879226,-0.8918,-0.3423,0.0463,12.3171,3.2317,-4.8780
1595879226,-0.9117,-0.3394,0.0444,12.6220,4.1463,-3.5366
1595879226,-0.9381,-0.3355,0.0370,12.3780,3.6585,1.6463
1595879226,-0.9633,-0.3472,0.0335,11.5244,1.7683,5.6098
1595879226,-0.9966,-0.3433,0.0300,9.9390,-1.2195,7.3171
1595879226,-1.0152,-0.3283,0.0235,7.8659,-5.1220,9.1463
1595879226,-1.0040,-0.3192,0.0254,5.1220,-9.2683,11.0976
1595879226,-0.9849,-0.3121,0.0287,1.8902,-12.5610,13.1098
1595879226,-0.9774,-0.3034,0.0322,-1.5854,-13.7805,13.9024
1595879226,-0.9755,-0.3218,0.0321,-4.2683,-12.8049,11.8902
1595879226,-0.9703,-0.3360,0.0362,-6.0366,-10.3049,7.7439
1595879226,-0.9634,-0.3301,0.0435,-6.2805,-7.5000,5.1829
1595879226,-0.9476,-0.3231,0.0557,-5.3049,-4.4512,1.8293
1595879226,-0.9290,-0.3265,0.0603,-3.4146,-1.7073,-1.2805
1595879226,-0.9235,-0.3251,0.0556,-1.4024,0.7317,-2.0732
1595879226,-0.9149,-0.3179,0.0505,0.9146,2.5610,-1.5854
1595879226,-0.8995,-0.3146,0.0497,3.2927,3.6585,-1.2805
1595879226,-0.8879,-0.3171,0.0444,5.4878,4.4512,-2.9878
1595879226,-0.8814,-0.3206,0.0321,7.4390,5.1829,-7.0732
1595879226,-0.8803,-0.3162,0.0231,9.0244,5.7317,-10.1829
1595879226,-0.8792,-0.3125,0.0165,10.2439,6.0976,-12.9268
1595879226,-0.8679,-0.3221,0.0123,10.9756,6.5244,-17.6829
1595879226,-0.8676,-0.3281,0.0056,11.2195,6.7683,-21.0976
1595879226,-0.8911,-0.3184,-0.0032,11.0366,6.7683,-20.5488
1595879226,-0.9132,-0.3145,-0.0125,10.0000,6.2195,-18.2317
1595879226,-0.9190,-0.3204,-0.0157,8.4756,4.6951,-17.3171
1595879226,-0.9247,-0.3250,-0.0182,6.3415,2.5000,-17.1951
1595879226,-0.9421,-0.3231,-0.0168,3.8415,0.1829,-15.3049
1595879226,-0.9651,-0.3229,-0.0156,1.2195,-2.0732,-11.5244
1595879226,-0.9725,-0.3188,-0.0154,-1.8293,-4.5122,-8.1707
1595879226,-0.9800,-0.3218,-0.0126,-4.8780,-6.8902,-4.9390
1595879226,-0.9885,-0.3187,-0.0131,-7.9878,-8.7805,0.0000
1595879226,-0.9951,-0.3253,-0.0163,-11.0976,-10.0610,6.5854
1595879226,-1.0015,-0.3317,-0.0128,-13.9024,-10.4878,10.6707
1595879226,-1.0020,-0.3438,-0.0010,-15.9756,-10.0610,11.4634
1595879226,-0.9957,-0.3433,0.0094,-17.0732,-8.9634,10.5488
1595879226,-0.9885,-0.3429,0.0179,-17.1951,-7.3780,11.1585
1595879226,-0.9814,-0.3452,0.0233,-16.4634,-5.4268,11.3415
1595879226,-0.9756,-0.3522,0.0330,-15.0610,-2.9878,10.1220
1595879226,-0.9761,-0.3566,0.0416,-13.1098,-0.4268,6.5854
1595879226,-0.9644,-0.3527,0.0469,-10.7317,2.1341,1.3415
1595879226,-0.9447,-0.3572,0.0523,-7.9268,4.3902,-4.8171
1595879226,-0.9343,-0.3655,0.0626,-5.1220,6.5854,-11.3415
1595879226,-0.9311,-0.3573,0.0695,-2.4390,8.5366,-16.8902
1595879227,-0.9308,-0.3552,0.0753,0.3049,9.8171,-20.7927
1595879227,-0.9305,-0.3545,0.0826,2.1341,9.8780,-22.1341
1595879227,-0.9261,-0.3562,0.0851,2.8049,8.9024,-20.7317
1595879227,-0.9257,-0.3620,0.0866,2.6220,7.3171,-19.6341
1595879227,-0.9340,-0.3634,0.0939,2.0122,5.1829,-18.0488
1595879227,-0.9246,-0.3514,0.1043,1.0976,2.2561,-14.2073
1595879227,-0.9152,-0.3549,0.1063,-0.2439,-1.0976,-8.0488
1595879227,-0.9244,-0.3687,0.0897,-2.1341,-4.2683,3.0488
1595879227,-0.9103,-0.3722,0.0786,-2.9268,-6.4024,10.1220
1595879227,-0.8752,-0.3834,0.0806,-1.9512,-6.7683,9.3902
1595879227,-0.8646,-0.3875,0.0810,-0.4268,-5.1829,4.7561
1595879227,-0.8786,-0.3759,0.0797,2.0122,-2.3171,2.3780
1595879227,-0.8969,-0.3676,0.0714,4.5122,0.2439,0.4268
1595879227,-0.8937,-0.3647,0.0735,6.5854,1.8293,-4.8171
1595879227,-0.8903,-0.3593,0.0823,7.7439,2.1341,-9.9390
1595879227,-0.9123,-0.3751,0.0818,8.0488,1.4024,-11.5854
1595879227,-0.9410,-0.3732,0.0686,7.3171,-0.4268,-8.5976
1595879227,-0.9513,-0.3616,0.0588,6.2195,-3.2927,-4.3293
1595879227,-0.9426,-0.3593,0.0574,5.1220,-6.2195,-3.9634
1595879227,-0.9384,-0.3734,0.0538,3.8415,-8.3537,-5.2439
1595879227,-0.9508,-0.3689,0.0495,2.5610,-9.0244,-4.2073
1595879227,-0.9480,-0.3689,0.0460,1.7073,-8.8415,-1.1585
1595879227,-0.9457,-0.3774,0.0464,1.2805,-8.1707,0.7927
1595879227,-0.9483,-0.3778,0.0432,1.4024,-6.8902,1.3415
1595879227,-0.9424,-0.3790,0.0402,2.1951,-5.4268,0.1220
1595879227,-0.9376,-0.3796,0.0474,3.1707,-4.0244,-2.5000
1595879227,-0.9354,-0.3668,0.0521,3.9634,-2.8659,-4.3293
1595879227,-0.9312,-0.3607,0.0563,4.2073,-2.0732,-3.9634
1595879227,-0.9310,-0.3565,0.0610,4.0854,-1.8902,-3.7195
1595879227,-0.9342,-0.3460,0.0639,3.3537,-2.1341,-2.2561
1595879227,-0.9301,-0.3572,0.0654,2.5000,-2.9878,-0.3659
1595879227,-0.9304,-0.3677,0.0672,1.9512,-3.7805,-0.4268
1595879227,-0.9340,-0.3800,0.0686,2.0732,-4.3293,-1.6463
1595879227,-0.9248,-0.3814,0.0680,2.7439,-4.5732,-2.8659
1595879227,-0.9147,-0.3834,0.0699,4.0244,-4.6951,-3.3537
1595879227,-0.9177,-0.3831,0.0707,5.3049,-4.2683,-3.9024
1595879227,-0.9199,-0.3803,0.0717,6.1585,-3.5976,-4.7561
1595879227,-0.9418,-0.3720,0.0728,6.5854,-3.2317,-5.2439
1595879227,-0.9602,-0.3669,0.0706,6.4024,-3.3537,-5.4878
1595879227,-0.9692,-0.3633,0.0727,5.0610,-4.3902,-5.3659
1595879227,-0.9697,-0.3543,0.0710,3.1098,-6.1585,-2.9268
1595879227,-0.9743,-0.3483,0.0642,1.0976,-8.1707,1.8293
1595879227,-0.9660,-0.3614,0.0564,-0.6707,-9.4512,3.2927
1595879227,-0.9354,-0.3719,0.0558,-1.5854,-9.6341,1.9512
1595879227,-0.9109,-0.3802,0.0568,-0.9146,-8.5366,1.2805
1595879227,-0.8974,-0.3813,0.0628,0.9146,-5.9756,1.4024
1595879227,-0.8868,-0.3762,0.0634,3.5366,-2.4390,0.2439
1595879227,-0.8805,-0.3733,0.0632,6.4024,1.2805,-4.1463
1595879227,-0.8847,-0.3669,0.0685,9.0244,4.2073,-9.5122
1595879227,-0.8898,-0.3682,0.0642,10.9756,5.7317,-12.7439
1595879227,-0.8939,-0.3728,0.0599,12.0122,5.9146,-15.5488
1595879227,-0.8979,-0.3657,0.0619,12.3171,4.8171,-16.6463
1595879227,-0.9067,-0.3638,0.0653,11.8293,2.5000,-13.7805
1595879227,-0.9142,-0.3689,0.0652,10.4878,-0.4878,-10.4878
1595879227,-0.9254,-0.3919,0.0630,8.2317,-3.5976,-8.2927
1595879227,-0.9238,-0.3891,0.0521,4.6341,-6.0366,-8.1098
1595879228,-0.9026,-0.3721,0.0415,0.9146,-7.8659,-7.0732
1595879228,-0.8955,-0.3759,0.0400,-2.6220,-8.4146,-3.9634
1595879228,-0.9075,-0.3793,0.0400,-6.2805,-7.3171,0.9146
1595879228,-0.9297,-0.3791,0.0347,-9.2073,-5.7317,5.4878
1595879228,-0.9484,-0.3828,0.0336,-11.4024,-5.0610,8.6585
1595879228,-0.9601,-0.3834,0.0312,-12.4390,-5.5488,10.0610
1595879228,-0.9631,-0.3823,0.0367,-12.3171,-6.7683,8.4146
1595879228,-0.9662,-0.3817,0.0434,-11.7683,-8.1707,5.7317
1595879228,-0.9747,-0.3801,0.0463,-11.4634,-9.0854,3.4756
1595879228,-0.9653,-0.3754,0.0500,-11.5244,-9.4512,2.9268
1595879228,-0.9575,-0.3732,0.0582,-12.5000,-9.2683,2.0732
1595879228,-0.9384,-0.3961,0.0764,-17.1951,-5.0000,5.7927
1595879228,-0.9279,-0.3693,0.0746,-18.8415,-3.5976,7.2561
1595879228,-0.9468,-0.3629,0.0756,-19.1463,-2.9878,10.6707
1595879228,-0.9621,-0.3645,0.0756,-18.9634,-1.9512,7.6829
1595879228,-0.9582,-0.3632,0.0756,-18.4756,-2.1341,4.1463
1595879228,-0.9572,-0.3619,0.0751,-17.5000,-3.2927,1.8902
1595879228,-0.9520,-0.3493,0.0767,-16.3415,-4.3293,1.9512
1595879228,-0.9391,-0.3632,0.0742,-14.6951,-4.8171,2.6829
1595879228,-0.9272,-0.3860,0.0726,-12.8659,-3.9634,0.9146
1595879228,-0.9185,-0.4150,0.0197,16.2805,36.7073,-36.2805
1595879228,-0.9310,-0.4198,0.0094,19.0244,39.3293,-38.1098
1595879228,-0.8765,-0.5392,-0.0608,16.2805,54.1463,-65.2439
1595879228,-0.8270,-0.5415,-0.0624,7.7439,47.4390,-52.9878
1595879228,-0.8410,-0.5746,-0.0959,-0.1829,37.6829,-45.7927
1595879228,-0.8447,-0.5859,-0.1069,-2.1341,32.7439,-42.5000
1595879228,-0.8538,-0.5802,-0.1202,-4.3293,27.0732,-38.6585
1595879228,-0.8726,-0.5656,-0.1287,-7.0732,20.8537,-32.2561
1595879228,-0.8792,-0.5626,-0.1387,-10.9146,13.9024,-24.8171
1595879228,-0.8795,-0.5643,-0.1492,-15.9146,6.9512,-18.0488
1595879228,-0.8813,-0.5650,-0.1581,-21.4024,0.4268,-10.6707
1595879228,-0.8778,-0.5623,-0.1785,-26.9512,-4.9390,-4.1463
1595879228,-0.8651,-0.5615,-0.1896,-31.8293,-8.2317,-1.6463
1595879228,-0.8488,-0.5544,-0.1927,-35.7927,-9.2683,-3.0488
1595879228,-0.8375,-0.5430,-0.1971,-38.9634,-8.5976,-4.9390
1595879228,-0.8266,-0.5301,-0.1969,-41.6463,-6.7073,-6.9512
1595879228,-0.8184,-0.5214,-0.1965,-44.0854,-4.3293,-9.9390
1595879228,-0.8227,-0.5086,-0.1997,-46.4024,-2.5000,-11.7683
1595879228,-0.8266,-0.4982,-0.2063,-48.9024,-2.0732,-10.9756
1595879228,-0.8338,-0.5089,-0.2125,-51.4024,-3.5366,-9.1463
1595879228,-0.8440,-0.5168,-0.2225,-53.9024,-6.7683,-6.7683
1595879228,-0.8445,-0.5054,-0.2307,-56.6463,-11.7073,-3.4756
1595879228,-0.8431,-0.4982,-0.2410,-59.7561,-18.1098,-1.3415
1595879228,-0.8322,-0.4883,-0.2415,-63.9634,-25.3659,0.2439
1595879228,-0.8124,-0.4708,-0.2365,-69.2073,-32.8049,1.5244
1595879228,-0.8012,-0.4586,-0.2363,-75.4878,-39.2683,2.0732
1595879228,-0.8123,-0.4520,-0.2286,-81.9512,-44.0244,2.0732
1595879228,-0.7941,-0.4579,-0.2192,-87.4390,-46.5854,-0.7317
1595879228,-0.7486,-0.5067,-0.2059,-90.3049,-46.3415,-10.5488
1595879228,-0.7433,-0.5436,-0.1924,-90.4268,-43.2927,-21.3415
1595879228,-0.7573,-0.5413,-0.2026,-87.2561,-39.2073,-26.5854
1595879228,-0.7662,-0.5264,-0.2094,-81.7073,-36.5854,-32.2561
1595879228,-0.8026,-0.5336,-0.2050,-74.6341,-36.1585,-43.1098
1595879228,-0.8264,-0.5428,-0.2061,-67.9268,-38.4756,-59.0854
1595879228,-0.8892,-0.5295,-0.0936,-61.7683,-44.0244,-74.8781
1595879228,-0.6730,-0.6161,-0.1491,-54.1463,-53.1707,-77.1341
1595879228,-0.6496,-0.6784,-0.2723,-44.4512,-66.5244,-22.3171
1595879228,-0.8318,-0.5959,-0.2281,-35.4268,-61.3415,-25.3049
1595879228,-0.8234,-0.5569,-0.2164,-23.1098,-53.2317,-58.4756
1595879228,-0.7776,-0.5696,-0.1981,-13.2317,-54.1463,-73.5976
1595879228,-0.7480,-0.5618,-0.1559,-9.0244,-54.3293,-95.1220
1595879228,-0.7510,-0.5876,-0.1369,-7.0122,-53.7805,-111.2195
1595879228,-0.7354,-0.6023,-0.1378,-8.4756,-55.0610,-113.9024
1595879228,-0.7038,-0.6125,-0.1278,-11.4634,-58.1098,-104.5122
1595879228,-0.6957,-0.6304,-0.1160,-14.8171,-60.5488,-98.7195
1595879228,-0.6860,-0.6651,-0.1225,-18.0488,-61.5854,-103.0488
1595879228,-0.6572,-0.6869,-0.1351,-21.7073,-63.4146,-108.6585
1595879228,-0.6550,-0.6304,-0.1290,-25.7317,-65.1829,-120.4878
1595879228,-0.6202,-0.6592,-0.1154,-27.4390,-67.3781,-135.3659
1595879228,-0.5529,-0.7919,-0.0992,-30.0610,-73.3537,-130.5488
1595879228,-0.5365,-0.9039,-0.1207,-31.4024,-78.3537,-127.6829
1595879228,-0.5430,-0.9369,-0.1542,-26.7073,-78.5366,-151.7073
1595879228,-0.4777,-0.9419,-0.1563,-13.7805,-77.3781,-192.9878
1595879228,-0.3828,-0.9271,-0.1407,0.2439,-77.6829,-230.1220
1595879228,-0.2659,-0.8581,-0.1013,13.8415,-77.1951,-251.8902
1595879228,-0.1523,-0.8361,-0.0597,23.7805,-74.7561,-257.0732
1595879228,-0.0764,-0.8052,-0.0175,26.0366,-70.0000,-243.4146
1595879228,-0.1291,-0.8407,-0.0121,22.9268,-63.2317,-210.3659
1595879228,-0.1158,-0.9314,0.0223,17.3171,-56.5854,-180.4878
1595879228,-0.0803,-0.9511,0.0781,12.6829,-52.9878,-159.5122
1595879228,-0.0408,-0.9260,0.1104,7.6829,-51.5854,-141.0976
1595879228,-0.0326,-0.9330,0.1295,0.6098,-50.8537,-131.7683
1595879228,-0.0023,-0.9745,0.1406,-7.8049,-51.6463,-121.0976
1595879228,0.0277,-1.0239,0.1461,-16.0976,-54.0854,-115.4268
1595879228,0.0573,-1.0530,0.1548,-23.9024,-56.4024,-122.0732
1595879228,0.0618,-1.0604,0.1540,-28.5366,-59.0854,-128.7805
1595879228,0.0687,-1.0560,0.1690,-30.6707,-62.1341,-127.5610
1595879228,0.1356,-1.0161,0.1784,-30.7927,-64.2683,-124.1463
1595879228,0.2723,-0.9409,0.2208,-31.2195,-65.0000,-118.4756
1595879228,0.3680,-0.9454,0.2929,-32.3780,-62.0732,-112.1951
1595879228,0.3886,-1.0380,0.2460,-34.7561,-53.1707,-125.4878
1595879228,0.3273,-1.0410,0.1538,-36.8293,-42.1951,-147.4390
1595879228,0.2733,-1.1596,0.0339,-28.1707,-33.2317,-170.3659
1595879228,0.3236,-1.2001,-0.0400,-13.1707,-26.5244,-211.6463
1595879228,0.3986,-1.0107,0.0982,9.3293,-23.9634,-234.5732
1595879228,0.4695,-1.0447,0.2051,29.5122,-23.3537,-225.0000
1595879228,0.4023,-1.0501,0.1310,38.9634,-19.3293,-228.1098
1595879228,0.2120,-0.9277,0.0474,46.2195,-16.7073,-213.0488
1595879228,0.0733,-0.8980,0.0184,49.0854,-20.7927,-180.7927
1595879228,0.0289,-0.7870,0.0150,45.4268,-32.3780,-151.2805
1595879228,0.1105,-0.7278,0.0193,37.8659,-49.3902,-121.5244
1595879228,0.1962,-0.7177,0.0209,23.5976,-67.5000,-90.6707
1595879228,0.2832,-0.7109,0.0183,5.7927,-83.6585,-50.4268
1595879228,0.3887,-0.7430,0.0192,-12.9268,-95.9756,-13.4146
1595879228,0.4711,-0.7789,0.0072,-31.7683,-102.7439,12.4390
1595879228,0.5324,-0.7277,-0.0196,-48.9024,-103.7195,35.1220
1595879228,0.4839,-0.8481,-0.0410,-63.9634,-99.3902,45.9146
1595879228,0.3026,-0.8038,-0.0192,-78.5366,-91.8902,38.9024
1595879228,0.2798,-0.6854,0.0110,-91.5244,-95.9146,98.9024
1595879228,0.3011,-0.7579,-0.1039,-108.5976,-99.8171,145.0000
1595879228,0.2678,-0.9357,-0.0683,-126.6463,-95.4268,142.5610
1595879228,0.2128,-1.0422,0.0321,-138.9024,-90.6098,161.0366
1595879228,0.2903,-1.1096,-0.0778,-141.2195,-89.5122,211.8293
1595879228,0.2866,-1.1583,-0.2808,-127.9878,-83.4756,230.4878
1595879228,0.2119,-1.2339,-0.2636,-111.5854,-67.0122,181.7073
1595879228,0.1468,-1.2048,-0.2297,-88.2317,-61.8293,214.6342
1595879228,0.0444,-1.0970,-0.3015,-57.3781,-58.1707,244.5122
1595879228,-0.0588,-1.0407,-0.3541,-31.3415,-51.8902,224.5122
1595879228,-0.1129,-1.0231,-0.3679,-9.5122,-47.6220,186.5854
1595879229,-0.1437,-1.0055,-0.3524,8.4756,-45.4878,138.7805
1595879229,-0.1339,-0.9753,-0.3102,23.2927,-44.8780,91.5854
1595879229,-0.0864,-0.9278,-0.2649,35.4268,-46.6463,58.2317
1595879229,-0.0928,-0.8968,-0.2629,42.4390,-49.8781,39.5732
1595879229,-0.1367,-0.8384,-0.2653,42.9268,-52.3781,22.9268
1595879229,-0.2100,-0.7987,-0.2660,36.5854,-55.7317,9.0854
1595879229,-0.2479,-0.7888,-0.2852,23.4146,-61.4634,1.0976
1595879229,-0.2302,-0.8051,-0.2731,5.6707,-69.6951,-1.2195
1595879229,-0.2060,-0.8286,-0.2379,-12.1951,-77.7439,-5.6098
1595879229,-0.1096,-0.8250,-0.1906,-29.2683,-85.1220,-4.0244
1595879229,-0.0957,-0.8488,-0.1554,-43.1707,-88.7195,-11.4024
1595879229,-0.1394,-0.9070,-0.1293,-53.4756,-87.4390,-29.6951
1595879229,-0.1486,-0.9505,-0.1117,-58.9024,-86.0366,-35.4268
1595879229,-0.0984,-1.0283,-0.0616,-58.6585,-86.0366,-27.6829
1595879229,-0.0344,-1.1551,-0.0590,-54.8171,-85.1220,-26.7683
1595879229,-0.0444,-1.2065,-0.1249,-47.9878,-82.2561,-34.1463
1595879229,-0.0894,-1.1736,-0.1599,-37.2561,-79.0854,-36.8293
1595879229,-0.1118,-1.0679,-0.1601,-25.7927,-78.0488,-29.9390
1595879229,-0.1260,-0.9639,-0.1524,-16.2805,-78.4146,-29.5122
1595879229,-0.1549,-0.8978,-0.1506,-11.0976,-78.8415,-40.9146
1595879229,-0.1948,-0.8684,-0.1459,-10.1220,-80.0000,-57.1341
1595879229,-0.2068,-0.8550,-0.1389,-11.5244,-83.4756,-67.5000
1595879229,-0.2054,-0.8413,-0.1215,-13.5366,-89.9390,-65.7927
1595879229,-0.1919,-0.7954,-0.0934,-15.0610,-98.2317,-56.3415
1595879229,-0.1917,-0.7980,-0.0786,-16.0976,-106.7683,-45.9146
1595879229,-0.1888,-0.8695,-0.0859,-17.9878,-114.0244,-42.0122
1595879229,-0.1588,-0.8881,-0.0998,-19.2683,-120.6707,-37.9268
1595879229,-0.1124,-0.9078,-0.1155,-19.4512,-127.3171,-20.1829
1595879229,-0.0674,-0.9671,-0.1516,-20.8537,-130.2439,-11.0366
1595879229,-0.0450,-1.0370,-0.1703,-24.0244,-128.2927,-10.4268
1595879229,-0.0166,-1.0707,-0.1639,-26.5854,-122.5000,-10.3049
1595879229,-0.0185,-1.1157,-0.1394,-26.7073,-113.8415,-14.3293
1595879229,-0.0114,-1.1525,-0.1151,-24.0854,-104.6341,-15.3049
1595879229,-0.0289,-1.1309,-0.0981,-18.9024,-96.7683,-10.6098
1595879229,-0.0624,-1.0806,-0.0901,-11.2805,-89.6951,-4.0854
1595879229,-0.0957,-1.0500,-0.0844,-2.9878,-83.3537,0.5488
1595879229,-0.1248,-0.9984,-0.0739,5.7317,-77.5610,-2.6220
1595879229,-0.1625,-0.9593,-0.0432,14.2683,-73.1707,-5.4268
1595879229,-0.1461,-0.9479,-0.0081,22.0122,-69.6951,-6.9512
1595879229,-0.0970,-1.0049,0.0297,29.2073,-65.3659,-9.1463
1595879229,-0.0193,-1.0807,0.0773,35.1829,-57.7439,-11.7073
1595879229,0.0143,-1.1062,0.1264,40.6098,-45.8537,-7.5610
1595879229,-0.0055,-1.0946,0.1467,44.6951,-30.0610,3.7805
1595879229,-0.1014,-1.0992,0.1223,46.0976,-13.1707,13.6585
1595879229,-0.1638,-1.1187,0.0764,45.0610,-0.6098,23.0488
1595879229,-0.2488,-1.1187,0.0448,42.8049,4.8780,22.6829
1595879229,-0.3531,-1.0835,0.0131,42.9878,2.9268,11.4024
1595879229,-0.3715,-1.0403,-0.0377,43.1098,-6.5854,2.3780
1595879229,-0.3443,-1.0393,-0.0646,41.8293,-17.8659,-12.9268
1595879229,-0.2595,-1.0353,-0.0648,38.7805,-26.6463,-23.9634
1595879229,-0.1852,-1.0563,-0.0718,36.1585,-30.0000,-26.1585
1595879229,-0.1562,-1.0709,-0.1002,33.8415,-26.0976,-25.9146
1595879229,-0.1759,-1.1025,-0.1295,34.0854,-17.0732,-23.1707
1595879229,-0.2023,-1.1401,-0.1609,36.3415,-6.7683,-21.3415
1595879229,-0.2353,-1.1474,-0.1806,39.4512,1.5244,-17.6220
1595879229,-0.2159,-1.1190,-0.1663,43.4756,8.0488,-15.8537
1595879229,-0.1984,-1.1078,-0.1392,46.1585,13.6585,-17.6829
1595879229,-0.2255,-1.1280,-0.1351,45.3659,20.4268,-24.8171
1595879229,-0.2627,-1.1275,-0.1699,42.6829,27.1341,-35.3049
1595879229,-0.2899,-1.0804,-0.1875,40.0610,30.9756,-40.8537
1595879229,-0.2662,-1.0380,-0.1722,37.6829,31.5244,-45.5488
1595879229,-0.2673,-1.0477,-0.1837,33.4146,31.2195,-58.4756
1595879229,-0.3150,-1.0437,-0.2150,25.9756,31.4024,-71.5854
1595879229,-0.3469,-0.9793,-0.2471,19.3293,29.2073,-71.7683
1595879229,-0.3475,-0.9299,-0.2471,14.3902,23.5366,-67.5000
1595879229,-0.3281,-0.9475,-0.2543,8.1707,15.9756,-68.8415
1595879229,-0.3358,-0.9448,-0.2606,1.7073,8.2927,-77.3781
1595879229,-0.3347,-0.8918,-0.2510,-2.3171,0.8537,-84.3293
1595879229,-0.3315,-0.8635,-0.2365,-4.7561,-6.7073,-89.5732
1595879229,-0.3181,-0.8812,-0.2186,-7.5610,-13.9634,-91.4024
1595879229,-0.2903,-0.9066,-0.2114,-10.4268,-21.3415,-86.1585
1595879229,-0.2571,-0.9216,-0.2130,-12.6829,-28.9634,-72.8659
1595879229,-0.2185,-0.9453,-0.1994,-14.3293,-36.1585,-57.1341
1595879229,-0.2310,-1.0873,-0.1703,-15.6098,-41.7683,-45.0000
1595879229,-0.1562,-1.0242,-0.1321,-12.4390,-47.7439,-26.5854
1595879229,-0.1113,-0.9914,-0.0974,-6.1585,-54.8171,-0.6707
1595879229,-0.0728,-1.0256,-0.0579,-1.2805,-57.1341,5.5488
1595879229,-0.0659,-1.0465,-0.0266,2.5000,-55.0000,0.5488
1595879229,-0.0558,-1.0764,-0.0204,5.7927,-50.6707,2.0122
1595879229,-0.0461,-1.1045,-0.0425,7.6220,-45.3659,5.1829
1595879229,-0.0076,-1.1177,-0.0739,8.6585,-39.3902,5.5488
1595879229,0.0320,-1.0967,-0.0811,9.9390,-32.7439,0.7927
1595879229,-0.0096,-1.0737,-0.0800,10.6098,-24.5732,-6.6463
1595879229,-0.0164,-1.0809,-0.1013,9.3293,-16.1585,-15.8537
1595879229,-0.0493,-1.0590,-0.1319,6.9512,-11.3415,-23.4146
1595879229,-0.1041,-0.9904,-0.1527,3.7195,-9.2683,-24.4512
1595879229,-0.1029,-0.9359,-0.1785,-0.3049,-10.7927,-19.5732
1595879229,-0.0715,-0.9053,-0.1974,-4.8171,-14.2683,-20.8537
1595879229,-0.0648,-0.8955,-0.1880,-9.6951,-17.0732,-23.1707
1595879229,-0.0411,-0.8720,-0.1600,-14.3293,-18.1707,-24.7561
1595879229,0.0352,-0.8417,-0.1168,-17.6220,-18.5976,-25.1220
1595879229,0.0742,-0.8530,-0.1230,-20.0610,-17.7439,-30.7927
1595879229,0.0383,-0.9315,-0.2045,-20.7927,-13.3537,-55.6707
1595879229,0.0163,-0.8986,-0.2544,-18.5976,-10.1829,-75.8537
1595879229,-0.0605,-0.7947,-0.2381,-13.1707,-10.9756,-77.6220
1595879229,0.0059,-0.7771,-0.2517,-9.9390,-14.0244,-74.3293
1595879229,0.1445,-0.7899,-0.2130,-11.0366,-21.1585,-69.5732
1595879229,0.2574,-0.8331,-0.1808,-13.4756,-24.4512,-74.6951
1595879229,0.2889,-0.9113,-0.1884,-15.2439,-22.0732,-86.2195
1595879229,0.2743,-1.0110,-0.1762,-14.9390,-16.5244,-101.7683
1595879229,0.4099,-0.8715,-0.1126,-12.1951,-12.2561,-88.1098
1595879229,0.4517,-0.8008,-0.0867,-6.4634,-5.9146,-56.0366
1595879230,0.4573,-0.8423,-0.0922,-4.1463,9.5732,-63.9634
1595879230,0.4412,-0.9111,-0.1279,-5.3659,26.3415,-91.2195
1595879230,0.4215,-0.9348,-0.1780,-6.3415,40.7317,-102.0732
1595879230,0.4081,-0.9328,-0.2250,-5.5488,52.2561,-97.3171
1595879230,0.3729,-0.8924,-0.2471,-4.3293,62.3781,-94.9390
1595879230,0.3179,-0.8068,-0.2378,-3.8415,70.9146,-94.5732
1595879230,0.2494,-0.7550,-0.1982,-6.2805,75.8537,-95.2439
1595879230,0.1966,-0.7414,-0.1630,-13.0488,75.7927,-95.0610
1595879230,0.1999,-0.7648,-0.1522,-22.5610,69.9390,-88.2927
1595879230,0.2694,-0.8078,-0.1540,-33.5976,59.5732,-75.8537
1595879230,0.3494,-0.8464,-0.1495,-44.4512,46.8902,-66.4634
1595879230,0.5302,-1.0214,-0.1105,-53.6585,33.9634,-60.0610
1595879230,0.6673,-1.0764,-0.0913,-61.3415,21.5854,-54.3293
1595879230,0.3343,-0.8763,-0.1092,-56.9512,16.8902,-44.2683
1595879230,0.3409,-0.8807,-0.1247,-50.1220,15.4878,-41.4634
1595879230,0.3566,-0.8658,-0.1866,-50.4268,4.8171,-43.9024
1595879230,0.2986,-0.8444,-0.2025,-49.3293,-4.3902,-36.0976
1595879230,0.3264,-0.8785,-0.2095,-49.3293,-11.4634,-31.2195
1595879230,0.3987,-0.9753,-0.2327,-50.4878,-19.2683,-23.7195
1595879230,0.4438,-0.9915,-0.2584,-50.1220,-24.3293,-15.1829
1595879230,0.4570,-0.9370,-0.2575,-45.7927,-25.9146,-9.7561
1595879230,0.4407,-0.9000,-0.2316,-40.7927,-25.3049,-12.8659
1595879230,0.4038,-0.8988,-0.1868,-37.0122,-23.3537,-28.1707
1595879230,0.4089,-0.9168,-0.1398,-34.3293,-21.3415,-49.2073
1595879230,0.3975,-0.9814,-0.1102,-31.9512,-20.0610,-67.1341
1595879230,0.3572,-1.0511,-0.1135,-29.6341,-18.6585,-74.0244
1595879230,0.3287,-1.0679,-0.1586,-25.4878,-18.5366,-61.4634
1595879230,0.3191,-1.0526,-0.2098,-18.7805,-19.3293,-41.0976
1595879230,0.3127,-1.0481,-0.2438,-11.3415,-20.5488,-24.2683
1595879230,0.3242,-1.1041,-0.2518,-4.7561,-20.8537,-17.6220
1595879230,0.3595,-1.1691,-0.2509,0.9146,-19.8171,-19.3902
1595879230,0.4111,-1.1868,-0.2469,7.0122,-18.9024,-16.7073
1595879230,0.4620,-1.1601,-0.2499,13.1707,-18.4146,-8.7805
1595879230,0.5098,-1.0980,-0.2491,18.4146,-17.1341,-6.7683
1595879230,0.5652,-1.0121,-0.2268,22.2561,-14.0244,-15.3659
1595879230,0.5994,-0.9683,-0.1755,23.9634,-8.5366,-35.1829
1595879230,0.6152,-0.9816,-0.0869,22.6829,-0.7317,-60.4268
1595879230,0.5169,-0.9835,-0.0222,18.9634,7.4390,-79.7561
1595879230,0.4028,-0.9238,-0.0082,17.5000,15.3049,-85.3659
1595879230,0.3602,-0.9142,-0.0101,17.0122,18.2317,-77.5000
1595879230,0.3165,-0.9741,-0.0191,16.5244,17.1951,-77.4390
1595879230,0.2574,-1.0286,-0.0511,18.2317,14.2073,-81.9512
1595879230,0.2242,-1.0427,-0.1169,22.9878,7.9268,-75.9756
1595879230,0.2246,-0.9880,-0.1715,28.1707,-2.5000,-54.8171
1595879230,0.2554,-0.9071,-0.1968,32.1951,-15.4268,-26.8293
1595879230,0.3005,-0.8074,-0.1856,33.1707,-27.8659,-5.9756
1595879230,0.3693,-0.7452,-0.1470,31.0366,-36.7683,5.5488
1595879230,0.4399,-0.7388,-0.1130,23.7195,-40.8537,8.4146
1595879230,0.4614,-0.7599,-0.0969,14.3902,-39.3293,7.8659
1595879230,0.4622,-0.8378,-0.0751,6.2195,-32.5000,4.3293
1595879230,0.4462,-0.9304,-0.0463,1.1585,-23.3537,-4.7561
1595879230,0.4250,-0.9277,-0.0590,1.0976,-16.0976,-1.7073
1595879230,0.4139,-0.9173,-0.0930,6.5854,-12.3780,9.6951
1595879230,0.4202,-0.8800,-0.1173,14.4512,-11.1585,17.5610
1595879230,0.4217,-0.8754,-0.1512,23.0488,-10.7317,22.3780
1595879230,0.4406,-0.8276,-0.1783,30.5488,-9.8171,28.4756
1595879230,0.4528,-0.7739,-0.1744,37.8049,-8.5976,40.2439
1595879230,0.4644,-0.7420,-0.1368,43.2927,-5.4878,44.7561
1595879230,0.4755,-0.7050,-0.0942,46.5244,-0.6707,43.8415
1595879230,0.4611,-0.6688,-0.0590,46.8902,5.0000,45.1220
1595879230,0.4189,-0.6377,-0.0214,44.6341,10.9756,47.3781
1595879230,0.3741,-0.6119,0.0018,40.3659,15.9146,47.3781
1595879230,0.3614,-0.6422,0.0215,35.2439,18.9024,45.9146
1595879230,0.3793,-0.7233,0.0313,29.8780,20.0610,43.9634
1595879230,0.4111,-0.8036,0.0138,26.1585,20.1829,44.0854
1595879230,0.4662,-0.8475,-0.0348,25.6098,19.2683,52.1341
1595879230,0.5214,-0.8517,-0.0853,27.9878,18.6585,63.9634
1595879230,0.5162,-0.8434,-0.1072,31.5854,19.6951,70.9756
1595879230,0.3959,-0.8515,-0.1411,34.5122,22.1951,68.4756
1595879230,0.4603,-0.8457,-0.0516,36.3415,22.1951,67.6220
1595879230,0.2967,-0.7483,-0.0366,37.9268,17.0122,68.6585
1595879230,0.3158,-0.7787,0.0345,40.0000,14.3293,60.1220
1595879230,0.2321,-0.7358,0.0255,36.7073,4.5122,67.1951
1595879230,0.2235,-0.7617,0.0054,36.8902,-1.5244,64.1463
1595879230,0.3142,-0.7321,0.0177,33.1098,-11.0366,73.4146
1595879230,0.2117,-0.7457,-0.0227,32.6220,-16.1585,65.3049
1595879230,0.2976,-0.8604,-0.0408,29.5732,-17.6829,54.3902
1595879230,0.3481,-0.9530,-0.0841,27.3780,-21.2195,44.7561
1595879230,0.4408,-1.0262,-0.1060,27.9878,-23.1098,46.8902
1595879230,0.4031,-0.9795,-0.1469,29.0854,-25.1829,59.7561
1595879230,0.3282,-0.9171,-0.1453,30.0610,-24.8171,69.5732
1595879230,0.2289,-0.8664,-0.0986,25.0000,-26.7683,72.9268
1595879230,0.2216,-0.8386,-0.0283,15.3049,-30.9756,73.2927
1595879230,0.3208,-0.8268,0.0398,2.1951,-36.2195,75.2439
1595879230,0.2989,-0.8574,0.0359,-10.2439,-36.2195,66.7683
1595879230,0.3160,-0.9446,0.0003,-21.4634,-29.8780,54.1463
1595879230,0.2944,-0.9846,-0.0464,-29.5732,-22.9878,41.9512
1595879230,0.2494,-1.0001,-0.0782,-31.7683,-15.1829,34.8780
1595879230,0.2158,-1.0258,-0.0934,-30.1220,-8.5366,29.2073
1595879230,0.2067,-1.0403,-0.1068,-25.3659,-4.5122,27.6220
1595879230,0.2026,-1.0192,-0.1208,-18.5366,-2.0122,30.4878
1595879230,0.1808,-0.9858,-0.0995,-10.8537,0.1220,36.7073
1595879230,0.1848,-0.9549,-0.0622,-4.2073,2.5000,48.6585
1595879230,0.1959,-0.9364,-0.0430,1.2195,6.2195,57.6829
1595879230,0.1700,-0.9415,-0.0388,5.3659,11.4634,61.7073
1595879230,0.1368,-0.9468,-0.0233,8.1098,16.7073,64.9390
1595879230,0.1125,-0.9450,-0.0092,10.1829,20.1220,68.9024
1595879230,0.0650,-0.9374,0.0036,11.6463,20.9756,74.0244
1595879230,0.0166,-0.9391,0.0052,12.6829,19.8780,78.2317
1595879230,0.0145,-0.9681,-0.0009,13.5366,17.0732,81.0976
1595879230,0.0244,-1.0087,-0.0082,14.9390,14.1463,82.1951
1595879231,-0.0023,-1.0457,-0.0008,18.5976,13.5366,84.6951
1595879231,-0.0010,-1.0126,0.0082,24.8171,15.6707,95.6098
1595879231,-0.0597,-0.9744,0.0031,33.3537,20.4268,110.0610
1595879231,-0.1379,-0.9714,-0.0179,41.7683,27.8659,110.0000
1595879231,-0.1987,-0.9337,-0.0498,49.5122,33.9634,103.2317
1595879231,-0.2367,-0.8972,-0.0700,56.0366,35.8537,101.7683
1595879231,-0.2523,-0.8652,-0.0483,58.8415,33.3537,104.8781
1595879231,-0.2519,-0.8478,-0.0056,57.4390,28.4146,107.3171
1595879231,-0.2587,-0.8162,0.0364,52.5000,22.5610,108.2927
1595879231,-0.2940,-0.7943,0.0595,45.0610,17.5000,105.6707
1595879231,-0.3079,-0.7905,0.0589,35.7317,13.2927,101.4024
1595879231,-0.3219,-0.8286,0.0474,25.9146,9.5122,95.9756
1595879231,-0.3975,-0.8633,0.0222,17.3780,6.8902,90.5488
1595879231,-0.3277,-0.8786,0.0216,10.7317,2.6829,97.2561
1595879231,-0.3644,-0.8721,0.0151,5.9146,-2.9878,109.8171
1595879231,-0.3998,-0.8552,0.0126,2.4390,-4.8780,118.2927
1595879231,-0.3580,-0.7689,0.0339,-2.1951,-7.3171,132.5610
1595879231,-0.3566,-0.7535,0.0812,-7.5610,-7.6829,139.6951
1595879231,-0.4012,-0.8234,0.1025,-14.5122,-1.4024,121.7683
1595879231,-0.3895,-0.8841,0.1000,-20.9146,7.0732,101.0976
1595879231,-0.4185,-0.9451,0.1070,-24.0854,14.0854,85.2439
1595879231,-0.4673,-0.9767,0.0920,-23.5366,20.5488,70.1220
1595879231,-0.4825,-1.0035,0.0603,-20.6098,23.4756,59.3293
1595879231,-0.4852,-1.0373,0.0400,-15.9756,23.2317,50.7927
1595879231,-0.5266,-1.0772,0.0734,-10.0000,22.5000,42.8659
1595879231,-0.5356,-1.0546,0.1246,-2.9878,20.7317,44.4512
1595879231,-0.5253,-0.9868,0.1420,3.4146,16.9512,61.8902
1595879231,-0.5668,-0.9196,0.1454,8.2927,15.0000,78.8415
1595879231,-0.6195,-0.8679,0.1390,10.7317,14.5122,88.5366
1595879231,-0.6401,-0.8580,0.1328,8.6585,10.8537,95.5488
1595879231,-0.6367,-0.8661,0.1398,3.1707,4.3902,94.7561
1595879231,-0.5958,-0.8770,0.1608,-3.8415,-3.5976,92.6220
1595879231,-0.5844,-0.8727,0.1608,-11.0976,-11.3415,92.8659
1595879231,-0.5794,-0.8803,0.1721,-16.6463,-15.3049,88.5366
1595879231,-0.6241,-0.8665,0.1817,-21.0976,-16.3415,85.5488
1595879231,-0.6762,-0.8544,0.1813,-22.9268,-15.6098,82.5000
1595879231,-0.6744,-0.8654,0.1584,-23.6585,-16.8902,81.2195
1595879231,-0.6362,-0.8854,0.1129,-23.7195,-20.7927,82.1951
1595879231,-0.5915,-0.9293,0.0824,-22.0122,-24.3293,79.5122
1595879231,-0.5686,-0.9611,0.0657,-18.0488,-24.9390,71.5854
1595879231,-0.5712,-0.9645,0.0562,-11.8902,-23.1098,62.3171
1595879231,-0.5569,-0.9319,0.0641,-5.6098,-20.1829,58.1707
1595879231,-0.5551,-0.9122,0.0865,-0.5488,-16.0976,58.2317
1595879231,-0.5835,-0.9062,0.1082,3.6585,-8.8415,56.7683
1595879231,-0.5929,-0.8983,0.1063,7.8049,-0.1829,57.0122
1595879231,-0.6071,-0.8946,0.0851,12.1951,7.4390,58.4756
1595879231,-0.6508,-0.8912,0.0691,17.2561,13.4756,54.8781
1595879231,-0.6982,-0.8615,0.0648,22.5610,16.5244,47.0732
1595879231,-0.7134,-0.8215,0.0695,26.8902,14.2683,42.0732
1595879231,-0.6989,-0.7987,0.0777,29.3293,8.2317,39.5732
1595879231,-0.6729,-0.7809,0.0826,30.4268,1.8902,38.4756
1595879231,-0.6616,-0.7619,0.0912,31.0366,-2.2561,36.7683
1595879231,-0.6655,-0.7631,0.1125,31.1585,-3.3537,33.8415
1595879231,-0.6786,-0.7421,0.1206,30.1220,-3.0488,32.6829
1595879231,-0.7146,-0.7026,0.1097,28.5366,-2.4390,33.7805
1595879231,-0.7386,-0.6846,0.1020,26.2805,-3.1098,34.6951
1595879231,-0.7451,-0.6830,0.0864,22.5610,-6.5854,34.2073
1595879231,-0.7662,-0.6580,0.0632,18.5976,-11.4634,31.7073
1595879231,-0.7094,-0.7116,0.0417,15.0610,-16.4634,29.5122
1595879231,-0.6235,-0.8159,-0.0016,9.3293,-20.7927,29.6951
1595879231,-0.6118,-0.8481,-0.0296,6.2805,-19.6341,28.3537
1595879231,-0.6693,-0.7825,-0.0041,8.2927,-12.4390,26.0976
1595879231,-0.7297,-0.7175,0.0342,10.9756,-4.3293,22.6220
1595879231,-0.7141,-0.7145,0.0486,9.5732,-0.1220,22.4390
1595879231,-0.6813,-0.7300,0.0522,4.3293,0.2439,24.7561
1595879231,-0.6899,-0.7273,0.0713,-0.1220,0.8537,23.8415
1595879231,-0.7028,-0.7328,0.0851,-2.5610,1.5854,19.2073
1595879231,-0.7007,-0.7659,0.0908,-4.3902,0.8537,12.3171
1595879231,-0.7196,-0.7858,0.0952,-4.4512,-0.8537,4.2683
1595879231,-0.7430,-0.7801,0.0974,-1.1585,-3.1707,-3.3537
1595879231,-0.7390,-0.7595,0.0731,3.7195,-7.3780,-8.2927
1595879231,-0.5288,-0.5922,0.1753,8.4146,-13.3537,-11.9512
1595879231,-0.4606,-0.4880,-0.1015,12.8659,-18.2927,-17.4390
1595879231,-0.9375,-0.8635,-0.1878,-23.5366,16.6463,-5.3049
1595879231,-0.7531,-0.6203,-0.0059,-40.9146,25.6098,-34.3293
1595879231,-0.7864,-0.7587,0.0182,-17.9878,-4.6951,-15.4878
1595879231,-0.7073,-0.7145,0.0134,-33.9024,3.1098,12.8049
1595879231,-0.6086,-0.6757,0.0499,-30.9756,0.4878,13.9024
1595879231,-0.6824,-0.6874,0.0546,-30.9146,0.4878,18.4756
1595879231,-0.6556,-0.7232,0.0605,-32.6220,4.1463,8.0488
1595879231,-0.6478,-0.7866,0.0591,-33.9634,4.6951,-1.2195
1595879231,-0.6577,-0.7929,0.0270,-35.1220,4.7561,-4.7561
1595879231,-0.6889,-0.8735,-0.0286,-32.5000,4.5122,5.1220
1595879231,-1.1249,-0.8351,0.0421,-28.2927,3.9634,24.5732
1595879231,-0.4807,-0.9553,-0.0002,17.0732,-1.2195,27.6220
1595879231,-0.6106,-0.6561,0.0428,15.7927,-3.2317,12.3780
1595879231,-0.7726,-0.5984,0.2152,23.2317,-1.1585,43.7805
1595879231,-0.6970,-0.7302,0.1002,12.1951,4.8171,-7.1341
1595879231,-0.6362,-0.7591,-0.0118,-2.4390,6.8293,-41.1585
1595879231,-0.6585,-0.6458,-0.0286,-14.3902,5.7927,-42.0122
1595879231,-0.6006,-0.8814,0.0912,-15.7927,8.4756,-56.5854
1595879231,-0.6575,-0.8329,0.1954,-6.8902,9.9390,-83.5976
1595879231,-0.6402,-0.7006,0.0316,11.6463,2.0122,-27.4390
1595879231,-0.7145,-0.6420,0.0305,-4.7561,1.4634,-11.5854
1595879231,-0.6937,-0.6412,0.0424,-2.2561,1.0366,-30.4268
1595879231,-0.6890,-0.6344,0.0391,-6.4634,3.0488,-61.2805
1595879231,-0.6618,-0.6260,0.0372,-9.3902,4.8780,-92.6829
1595879231,-0.6492,-0.6136,0.0384,-14.2683,6.6463,-128.5976
1595879231,-0.6138,-0.5969,0.0339,-18.2927,9.0244,-169.3293
1595879231,-0.5490,-0.5587,0.0276,-23.9024,12.1341,-217.8659
1595879231,-0.4723,-0.5343,0.0326,-29.8780,16.1585,-277.0732
1595879231,-0.4810,-0.6237,0.0092,-35.8537,22.2561,-357.5000
1595879232,-0.5129,-0.7066,-0.0256,-41.4024,28.6585,-448.3537
1595879232,-0.4498,-1.0800,-0.0226,-44.8780,29.0854,-522.3171
1595879232,-0.1520,-1.0440,-0.0370,-50.2439,26.1585,-585.9756
1595879232,0.3339,-1.0334,-0.2206,-59.8171,23.5976,-662.0122
1595879232,0.5236,-0.9888,-0.0176,-21.4024,17.4390,-658.2318
1595879232,0.4141,-0.7808,0.0436,49.1463,4.6951,-424.0244
1595879232,0.4163,-0.8962,-0.0718,6.8902,-7.1951,-173.8415
1595879232,0.4596,-0.9346,-0.0005,5.9146,-12.6829,-35.1829
1595879232,0.4076,-1.1528,-0.0270,4.3293,-16.9512,109.4512
1595879232,0.1665,-0.7363,-0.0041,-27.7439,-20.6098,251.1585
1595879232,0.1875,-0.9849,-0.0392,-28.6585,-18.1098,269.6951
1595879232,-0.0106,-1.3185,-0.1193,-8.7805,-9.2073,159.5732
1595879232,-0.0541,-0.9183,-0.0462,1.7683,4.2683,18.1707
1595879232,0.0306,-0.7483,0.0333,-1.2195,1.5244,0.3659
1595879232,0.0073,-1.0161,-0.0370,0.9146,-2.7439,9.6951
1595879232,-0.0399,-1.1610,-0.0786,-2.6829,0.4268,-0.3049
1595879232,0.0076,-0.9676,-0.0324,-1.5244,1.5244,-7.0732
1595879232,0.0244,-0.8883,-0.0065,0.4268,-0.9756,-1.7683
1595879232,0.0029,-1.0247,-0.0410,-0.4878,-0.7927,-2.7439
1595879232,0.0106,-1.0533,-0.0468,-1.4024,0.6098,-6.9512
1595879232,0.0187,-0.9588,-0.0248,-0.1829,0.4268,-3.5976
1595879232,0.0001,-0.9778,-0.0297,0.2439,-0.3659,3.0488
1595879232,-0.0065,-1.0117,-0.0389,-0.5488,-0.0610,2.9878
1595879232,0.0031,-0.9847,-0.0334,-0.4878,0.1829,0.9146
1595879232,0.0014,-0.9902,-0.0338,-0.0610,0.1220,0.6098
1595879232,0.0030,-0.9970,-0.0344,-0.3659,0.0000,-0.3049
1595879232,0.0065,-0.9916,-0.0339,-0.3049,0.0000,-1.0976
1595879232,0.0056,-0.9962,-0.0375,-0.3049,0.0000,-0.5488
1595879232,0.0048,-0.9904,-0.0371,-0.2439,-0.0610,0.0610
1595879232,0.0086,-0.9942,-0.0349,-0.1829,0.1220,0.0000
1595879232,0.0088,-0.9970,-0.0355,-0.3049,0.0000,-0.5488
1595879232,0.0102,-0.9927,-0.0371,-0.2439,-0.0610,-0.8537
1595879232,0.0097,-0.9932,-0.0378,-0.3049,0.0610,-0.6098
1595879232,0.0076,-0.9922,-0.0341,-0.2439,0.0000,0.1220
1595879232,0.0070,-0.9910,-0.0346,-0.1220,0.0000,0.3659
1595879232,0.0056,-0.9935,-0.0366,-0.1829,-0.0610,0.1829
1595879232,0.0032,-0.9932,-0.0343,-0.3049,-0.0610,0.0000
1595879232,0.0037,-0.9912,-0.0325,-0.3049,0.0000,0.0000
1595879232,0.0011,-0.9920,-0.0330,-0.1829,0.0000,0.1829
1595879232,0.0011,-0.9935,-0.0334,-0.1220,0.0610,0.3049
1595879232,-0.0006,-0.9927,-0.0319,-0.3049,0.0000,0.0610
1595879232,0.0030,-0.9913,-0.0344,-0.2439,-0.0610,-0.1829
1595879232,0.0042,-0.9840,-0.0333,-0.3049,0.0000,-0.3049
1595879232,0.0013,-0.9941,-0.0342,-0.2439,-0.0610,-0.1220
1595879232,-0.0033,-1.0046,-0.0367,-0.1829,0.0610,0.4268
1595879232,0.0051,-0.9843,-0.0364,-0.3049,-0.0610,0.1220
1595879232,0.0067,-0.9904,-0.0370,-0.3659,0.0610,-1.0366
1595879232,0.0109,-0.9933,-0.0378,-0.4268,0.0000,-1.1585
1595879232,0.0095,-0.9888,-0.0367,-0.2439,0.0000,-0.7317
