time,ax,ay,az,gx,gy,gz
1595878656,0.1729,-0.8944,0.3138,-0.6098,0.3049,0.0000
1595878656,0.1708,-0.9001,0.3159,-0.6098,0.2439,-0.1829
1595878656,0.1712,-0.8991,0.3122,-0.6098,0.4268,-0.3049
1595878656,0.1725,-0.8959,0.3145,-0.4268,0.2439,-0.2439
1595878656,0.1703,-0.8975,0.3156,-0.3659,0.2439,-0.0610
1595878656,0.1674,-0.8990,0.3154,-0.4878,0.5488,-0.3049
1595878656,0.1685,-0.8993,0.3160,-0.4268,0.5488,-0.1220
1595878656,0.1686,-0.8990,0.3152,-0.4878,0.3659,-0.1829
1595878656,0.1662,-0.8961,0.3144,-0.6707,0.4268,-0.2439
1595878656,0.1675,-0.8956,0.3120,-0.6707,0.5488,-0.1829
1595878656,0.1713,-0.9010,0.3105,-0.6707,0.3659,-0.0610
1595878656,0.1727,-0.9034,0.3134,-0.3659,0.3049,0.0000
1595878656,0.1676,-0.9039,0.3211,-0.3659,0.5488,0.1220
1595878656,0.1685,-0.9045,0.3218,-0.6098,0.9146,0.3049
1595878656,0.1703,-0.8979,0.3174,-0.6098,0.7317,0.1829
1595878656,0.1692,-0.8954,0.3156,-0.6098,0.4268,-0.0610
1595878656,0.1649,-0.8948,0.3127,-0.6707,0.4268,-0.1829
1595878656,0.1639,-0.8959,0.3107,-0.6098,0.4268,-0.3049
1595878656,0.1634,-0.8964,0.3119,-0.5488,0.2439,-0.3049
1595878656,0.1642,-0.8981,0.3110,-0.5488,0.1220,-0.3049
1595878656,0.1657,-0.9001,0.3115,-0.6098,0.1220,-0.1829
1595878656,0.1681,-0.8998,0.3148,-0.6098,0.1220,0.0000
1595878656,0.1702,-0.9019,0.3169,-0.7317,0.2439,0.1829
1595878656,0.1736,-0.9016,0.3173,-0.7927,0.1829,0.2439
1595878656,0.1727,-0.9003,0.3163,-0.7317,0.4878,0.1829
1595878656,0.1730,-0.9014,0.3162,-0.7317,0.6707,0.2439
1595878656,0.1737,-0.9008,0.3152,-0.5488,0.6098,0.1220
1595878657,0.1734,-0.9011,0.3151,-0.4268,0.2439,-0.1220
1595878657,0.1726,-0.9003,0.3146,-0.4268,0.0610,-0.2439
1595878657,0.1713,-0.8993,0.3152,-0.3049,-0.1220,-0.2439
1595878657,0.1718,-0.8974,0.3152,-0.1829,0.0000,-0.3659
1595878657,0.1692,-0.8978,0.3141,-0.2439,0.3049,-0.4878
1595878657,0.1681,-0.9011,0.3152,-0.3659,0.7317,-0.3659
1595878657,0.1659,-0.8995,0.3148,-0.3659,0.7927,-0.2439
1595878657,0.1638,-0.8978,0.3134,-0.3659,0.7317,-0.1829
1595878657,0.1633,-0.8981,0.3124,-0.4268,0.6098,-0.1829
1595878657,0.1643,-0.8992,0.3115,-0.5488,0.4268,-0.1220
1595878657,0.1653,-0.9004,0.3083,-0.5488,0.3049,-0.1829
1595878657,0.1659,-0.8991,0.3112,-0.5488,0.1220,-0.1829
1595878657,0.1671,-0.8986,0.3105,-0.6707,0.0610,-0.1829
1595878657,0.1705,-0.8972,0.3115,-0.7927,0.2439,-0.0610
1595878657,0.1702,-0.8979,0.3129,-0.9146,0.5488,0.0000
1595878657,0.1689,-0.8998,0.3127,-1.0976,0.9146,0.0610
1595878657,0.1688,-0.9027,0.3110,-1.3415,1.2195,0.0610
1595878657,0.1683,-0.9079,0.3136,-1.4024,1.2805,0.1220
1595878657,0.1688,-0.9153,0.3074,-1.2805,1.4024,0.3659
1595878657,0.1719,-0.9189,0.3002,-1.4024,1.2195,0.5488
1595878657,0.1714,-0.9127,0.3025,-1.4024,0.7317,0.5488
1595878657,0.1697,-0.9059,0.3013,-1.5244,0.5488,0.6098
1595878657,0.1728,-0.9034,0.3000,-1.7073,0.6098,0.6098
1595878657,0.1760,-0.8991,0.3021,-1.8293,0.4268,0.5488
1595878657,0.1759,-0.8992,0.3052,-2.0732,0.6098,0.3659
1595878657,0.1729,-0.8969,0.3062,-2.5000,1.3415,0.3049
1595878657,0.1700,-0.8965,0.3062,-2.8049,2.0732,0.1829
1595878657,0.1689,-0.8987,0.3067,-2.9268,2.4390,0.1220
1595878657,0.1655,-0.9000,0.3093,-3.1098,2.6220,0.1829
1595878657,0.1628,-0.8981,0.3105,-2.9878,2.6829,0.2439
1595878657,0.1619,-0.8978,0.3114,-2.8659,2.3171,0.3049
1595878657,0.1643,-0.9033,0.3139,-2.8659,1.8902,0.3659
1595878657,0.1553,-0.8991,0.3124,-2.7439,1.5244,0.4878
1595878657,0.1470,-0.8951,0.3091,-2.9878,1.0366,0.6707
1595878657,0.1440,-0.9037,0.3138,-3.5976,-0.1220,1.1585
1595878657,0.0933,-0.9197,0.3048,-3.4756,-1.5854,2.1341
1595878657,0.0159,-0.9106,0.2846,-4.3902,-3.1707,3.2317
1595878657,-0.0670,-0.8829,0.2672,-6.8902,-6.9512,4.8780
1595878657,-0.1546,-0.8561,0.2902,-11.3415,-15.5488,7.0122
1595878657,-0.2508,-0.8431,0.3171,-15.6098,-29.5732,11.4024
1595878657,-0.2680,-0.8589,0.3422,-19.3902,-50.4878,17.0122
1595878657,-0.2521,-0.8698,0.3829,-20.7317,-77.8049,23.5366
1595878657,-0.3019,-0.8827,0.4530,-21.2195,-104.9390,30.1220
1595878657,-0.3624,-0.8935,0.4735,-22.1341,-128.1098,37.6220
1595878657,-0.3423,-0.9272,0.4169,-20.7927,-152.2561,46.0976
1595878657,-0.2518,-0.9989,0.3898,-20.3659,-181.1585,53.3537
1595878657,-0.1740,-1.0242,0.4639,-18.2927,-208.1098,59.2683
1595878657,-0.1612,-1.0196,0.6093,-12.7439,-227.6220,65.1220
1595878657,-0.1252,-1.0152,0.7510,-8.4146,-240.6098,71.8902
1595878657,-0.0669,-1.0008,0.8601,-0.4878,-249.7561,76.2805
1595878657,-0.0221,-1.0081,0.9303,8.0488,-253.5366,77.1341
1595878657,0.0262,-1.0405,0.9683,13.2927,-250.7317,76.8293
1595878657,0.0818,-1.0693,1.0240,19.9390,-243.3537,73.7195
1595878657,0.1351,-1.1047,1.1099,29.2683,-235.1829,69.9390
1595878657,0.1983,-1.1682,1.1709,42.0122,-227.8049,67.7439
1595878657,0.2291,-1.2150,1.2025,57.1951,-219.9390,63.4756
1595878657,0.2303,-1.2379,1.1556,72.5610,-212.3781,59.8781
1595878657,0.2247,-1.2552,1.0649,84.2073,-209.2683,56.8902
1595878657,0.2175,-1.2627,0.9908,93.3537,-211.5854,51.8293
1595878657,0.2591,-1.2540,0.9444,104.3902,-220.0000,46.4024
1595878657,0.3542,-1.2648,0.8828,117.7439,-232.5000,41.6463
1595878657,0.4727,-1.2894,0.8277,128.9024,-246.1585,34.5122
1595878657,0.5430,-1.2960,0.7547,137.9878,-254.5122,25.4268
1595878657,0.5696,-1.3041,0.6304,144.8781,-257.1951,16.2805
1595878657,0.6034,-1.3100,0.5128,149.1463,-258.6585,4.5732
1595878657,0.6165,-1.2902,0.4554,152.6219,-259.5732,-8.6585
1595878657,0.5955,-1.2726,0.3653,155.3659,-257.7439,-21.5854
1595878657,0.5770,-1.2717,0.2471,155.4878,-254.8171,-37.0732
1595878657,0.6007,-1.2527,0.1801,154.1463,-255.3659,-53.4146
1595878657,0.6068,-1.2128,0.1116,151.4634,-258.4756,-68.1098
1595878657,0.6307,-1.1808,0.0212,145.3049,-265.9146,-84.2683
1595878657,0.6897,-1.1616,-0.0405,136.9512,-276.6464,-101.2805
1595878657,0.7000,-1.1101,-0.0828,127.6220,-281.6464,-116.5854
1595878657,0.6624,-1.0491,-0.1551,116.2195,-280.1219,-130.0610
1595878657,0.6679,-0.9963,-0.2120,103.9024,-280.5488,-142.4390
1595878657,0.7232,-0.9528,-0.2321,91.2805,-281.3415,-154.1463
1595878657,0.7846,-0.8975,-0.2535,78.2317,-276.7683,-162.9268
1595878657,0.7678,-0.8885,-0.1985,64.6951,-261.7683,-169.0854
1595878657,0.7109,-0.8753,-0.1785,50.2439,-244.5122,-174.0854
1595878657,0.6489,-0.8666,-0.2267,39.1463,-226.5244,-175.5488
1595878658,0.6159,-0.8301,-0.2880,30.1829,-208.1098,-176.7683
1595878658,0.5936,-0.7874,-0.3565,22.0732,-188.7805,-175.0000
1595878658,0.6540,-0.7776,-0.4258,10.4878,-173.7805,-172.3171
1595878658,0.6880,-0.7465,-0.4490,-0.1220,-159.0854,-170.7317
1595878658,0.6620,-0.7025,-0.4333,-10.9756,-144.8171,-167.9268
1595878658,0.6443,-0.6790,-0.4128,-22.6829,-136.0366,-165.0610
1595878658,0.6593,-0.6700,-0.4123,-34.6951,-132.1951,-163.2927
1595878658,0.6738,-0.6581,-0.4460,-47.3781,-131.7073,-162.1342
1595878658,0.6962,-0.6635,-0.5195,-60.7317,-131.7073,-160.6707
1595878658,0.7122,-0.6703,-0.6153,-72.5610,-126.4634,-159.0854
1595878658,0.7153,-0.6334,-0.6354,-80.4268,-112.9268,-156.1585
1595878658,0.7021,-0.5967,-0.5906,-85.5488,-94.2683,-150.1219
1595878658,0.6936,-0.5850,-0.5393,-90.6098,-75.6098,-143.4756
1595878658,0.7117,-0.5776,-0.5167,-95.8537,-61.1585,-137.5000
1595878658,0.7352,-0.5728,-0.5265,-101.4634,-53.9024,-131.8293
1595878658,0.7418,-0.5682,-0.5677,-108.5976,-52.4390,-126.0366
1595878658,0.7118,-0.5507,-0.6080,-116.5244,-52.8659,-120.1829
1595878658,0.6869,-0.5323,-0.6404,-125.0000,-51.3415,-113.1098
1595878658,0.7033,-0.5427,-0.6505,-133.9634,-50.0000,-103.9024
1595878658,0.7346,-0.5645,-0.6540,-142.8659,-47.2561,-93.5976
1595878658,0.7479,-0.5767,-0.6747,-150.1219,-39.2073,-82.8049
1595878658,0.7433,-0.5945,-0.7043,-156.0366,-28.3537,-72.8049
1595878658,0.8237,-0.6178,-0.7279,-170.2439,-17.5610,-58.0488
1595878658,0.8632,-0.6349,-0.7108,-177.6829,-15.0000,-52.6220
1595878658,0.8764,-0.6595,-0.6702,-185.4878,-7.8049,-47.7439
1595878658,0.8453,-0.6781,-0.6071,-192.7439,6.5244,-42.3171
1595878658,0.8221,-0.6972,-0.5594,-199.0244,23.1707,-38.5976
1595878658,0.8611,-0.7124,-0.5404,-203.9634,34.8171,-37.1951
1595878658,0.9459,-0.7319,-0.5386,-207.8049,41.8293,-37.1951
1595878658,0.9917,-0.7543,-0.5436,-211.2195,51.4024,-38.5976
1595878658,0.9849,-0.7752,-0.5458,-214.8781,68.1098,-41.4024
1595878658,0.9709,-0.7929,-0.5256,-218.2317,89.0854,-44.9390
1595878658,0.9767,-0.7753,-0.4656,-221.7683,111.2195,-48.7195
1595878658,1.0120,-0.7435,-0.3915,-225.1220,131.7073,-54.8171
1595878658,1.0692,-0.7188,-0.3255,-226.7073,144.3902,-63.7805
1595878658,1.1044,-0.7136,-0.2817,-226.4634,149.1463,-75.1220
1595878658,1.1058,-0.7470,-0.2779,-225.6707,151.0366,-86.1585
1595878658,1.0781,-0.7742,-0.3010,-225.8537,151.5244,-96.5854
1595878658,1.0168,-0.7535,-0.2953,-228.1098,148.9634,-106.5244
1595878658,0.9531,-0.7512,-0.2145,-234.8781,144.3902,-116.2805
1595878658,0.9653,-0.7870,-0.0761,-244.7561,136.8293,-125.4268
1595878658,1.0015,-0.8195,0.0272,-250.4268,129.8781,-132.5000
1595878658,0.9734,-0.7829,0.0101,-250.4268,131.4634,-138.3537
1595878658,0.8458,-0.7309,-0.0739,-246.0976,149.2073,-141.8293
1595878658,0.8091,-0.7057,-0.1168,-243.5976,168.9025,-146.1585
1595878658,0.8310,-0.6727,-0.1191,-244.2683,183.7805,-151.4634
1595878658,0.8381,-0.6744,-0.0480,-248.2927,197.3781,-156.0976
1595878658,0.8727,-0.7467,0.1204,-257.0122,208.1098,-161.5854
1595878658,0.9057,-0.8465,0.2692,-263.8415,220.9146,-168.9025
1595878658,0.7883,-0.8860,0.4598,-263.4756,243.8415,-177.1951
1595878658,0.7033,-0.8602,0.5683,-256.0976,267.5000,-187.6219
1595878658,0.8926,-0.7465,0.4528,-245.7317,274.4512,-199.2073
1595878658,1.0197,-0.5945,0.2112,-231.5854,273.2927,-211.7683
1595878658,0.4590,0.1387,-0.8730,-228.5976,282.0122,-219.6342
1595878658,-1.7054,0.0511,-0.2445,-235.1829,307.3781,-231.5854
1595878658,0.7118,0.4737,0.1026,23.9634,-367.5610,352.6829
1595878658,1.9999,-0.2351,1.7640,387.7439,-558.5976,-9.0854
1595878658,-0.1490,0.4478,0.5178,-84.8171,74.6951,-41.1585
1595878658,0.9233,0.6477,0.8336,-37.5610,-11.8902,-27.3780
1595878658,1.4155,0.3303,0.3296,-2.1951,-67.5000,-32.1341
1595878658,1.0761,0.3619,0.0217,1.1585,-33.7805,-47.5000
1595878658,0.6299,0.3184,0.3864,0.0000,-9.5122,-13.7805
1595878658,0.7817,0.3555,0.4160,8.7805,-55.3049,-1.5244
1595878658,0.8783,0.3453,0.5268,7.9268,-40.7927,0.6098
1595878658,0.8810,0.2979,0.5117,2.5610,-19.0244,1.0976
1595878658,0.8702,0.3082,0.4800,4.3293,-6.1585,1.2195
1595878658,0.8597,0.2753,0.5159,3.7805,-7.5610,1.1585
1595878659,0.8846,0.2730,0.5172,6.4634,-7.9878,0.6707
1595878659,0.8323,0.2849,0.4591,13.3537,-3.1098,-1.1585
1595878659,0.8067,0.2976,0.4535,12.8049,-1.8902,-2.4390
1595878659,0.8278,0.2975,0.4804,11.8902,-11.9512,-3.0488
1595878659,0.8528,0.2916,0.4385,7.1341,-15.7927,1.3415
1595878659,0.8762,0.3000,0.4495,6.0976,-16.2195,2.5000
1595878659,0.8008,0.3228,0.4697,4.8780,5.0610,-1.1585
1595878659,0.8717,0.3581,0.4312,7.0732,-7.1951,-0.6098
1595878659,0.8789,0.3636,0.4191,7.2561,-9.3902,-0.6707
1595878659,0.8666,0.3242,0.4633,0.8537,-1.8293,-0.3659
1595878659,0.8259,0.3239,0.4591,-0.2439,3.4756,-1.3415
1595878659,0.8125,0.3402,0.4697,1.0366,-1.1585,-1.4024
1595878659,0.8148,0.3502,0.4679,1.4634,-5.4268,-1.3415
1595878659,0.8306,0.3631,0.4600,1.2805,-9.9390,-0.4878
1595878659,0.8708,0.3671,0.4611,1.2195,-13.5366,0.1220
1595878659,0.9456,0.3419,0.4355,0.3659,-5.1829,-0.6707
1595878659,0.9315,0.3381,0.4266,0.3659,0.6098,-1.0366
1595878659,0.8509,0.3510,0.4846,-0.0610,0.0000,-3.5976
1595878659,0.8746,0.3511,0.4979,0.3659,-5.0000,-5.4268
1595878659,0.8811,0.3524,0.4546,-0.1220,-7.5610,-7.8049
1595878659,0.8806,0.3554,0.4077,-0.7317,-4.8780,-7.8659
1595878659,0.8727,0.3586,0.3824,-1.0976,-2.9878,-7.8049
1595878659,0.8521,0.3604,0.3858,-0.9756,-2.3171,-6.7073
1595878659,0.8128,0.3330,0.4244,-0.7927,-2.9268,-3.8415
1595878659,0.8111,0.3286,0.4222,-0.3659,-6.4634,-2.9268
1595878659,0.8110,0.3272,0.4365,-0.5488,-11.6463,-2.5000
1595878659,0.8384,0.2955,0.4407,-3.0488,-17.0122,-3.4146
1595878659,0.8572,0.3019,0.4384,-4.5732,-14.5122,-4.5732
1595878659,0.8603,0.3064,0.4319,-6.0976,-9.4512,-5.6098
1595878659,0.8483,0.3049,0.4008,-8.3537,-3.7805,-5.4878
1595878659,0.8555,0.2833,0.3586,-11.7683,6.1585,-3.8415
1595878659,0.8427,0.2778,0.3602,-11.7683,5.7317,-4.5732
1595878659,0.8198,0.2673,0.3683,-12.6829,4.1463,-5.1829
1595878659,0.7969,0.2768,0.3636,-14.0854,0.3049,-9.2073
1595878659,0.8049,0.2974,0.3714,-14.0854,-0.5488,-12.1951
1595878659,0.8157,0.2917,0.3768,-13.5366,-1.6463,-13.7805
1595878659,0.7896,0.2342,0.3629,-15.4878,-2.7439,-12.5610
1595878659,0.7640,0.2030,0.3457,-17.4390,-2.2561,-11.4024
1595878659,0.7428,0.1063,0.3303,-27.3780,-4.8780,-8.7195
1595878659,0.7510,0.0808,0.2897,-31.6463,-4.5122,-9.0854
1595878659,0.7493,0.0649,0.2595,-37.5610,-0.7317,-10.0000
1595878659,0.7422,-0.0150,0.2466,-48.9634,15.9146,-13.8415
1595878659,0.6831,-0.0626,0.2338,-56.0366,26.7073,-16.7683
1595878659,0.6537,-0.1028,0.2317,-63.4756,33.2317,-20.9146
1595878659,0.6473,-0.1307,0.2379,-68.5976,33.1098,-25.1829
1595878659,0.6168,-0.1888,0.2699,-74.2073,30.8537,-27.9878
1595878659,0.5933,-0.3544,0.4023,-81.7683,32.0732,-29.3902
1595878659,0.5637,-0.3787,0.4120,-81.0976,30.6707,-26.4024
1595878659,0.4760,-0.3275,0.3538,-82.6220,28.3537,-23.7805
1595878659,0.4557,-0.2684,0.2708,-83.9024,25.6098,-24.9390
1595878659,0.4839,-0.3076,0.2530,-88.5366,17.1341,-26.2805
1595878659,0.5472,-0.4369,0.3132,-98.9024,0.7317,-24.8780
1595878659,0.5906,-0.5175,0.4895,-104.1463,-11.1585,-14.2073
1595878659,0.4928,-0.2579,0.4864,-91.8902,48.7805,11.1585
1595878659,0.4385,-0.2987,0.5223,-101.8293,64.2073,25.0000
1595878659,0.5709,-0.2527,0.5417,-99.2683,58.9024,41.4634
1595878659,0.7488,-0.2335,0.5049,-93.3537,45.8537,54.8171
1595878659,0.8010,-0.2311,0.4310,-94.3902,39.6951,66.7073
1595878659,0.6752,-0.1887,0.3836,-96.5854,42.5610,81.5854
1595878659,0.5105,-0.1796,0.3782,-101.9512,35.5488,97.6829
1595878659,0.5047,-0.1990,0.3815,-108.1098,5.3049,114.6341
1595878659,0.6176,-0.2213,0.3940,-110.0000,-38.9634,134.5732
1595878659,0.6997,-0.2494,0.4237,-110.6707,-79.2073,154.8171
1595878659,0.7847,-0.3040,0.4350,-111.0366,-108.9634,175.1219
1595878659,0.8867,-0.3837,0.4435,-108.9024,-133.7805,195.3659
1595878659,1.0150,-0.4537,0.4790,-104.0854,-159.4512,216.7073
1595878659,1.1810,-0.4699,0.5647,-95.6707,-183.2317,238.0488
1595878659,1.2610,-0.4370,0.6411,-84.3293,-197.3781,258.6585
1595878659,1.2812,-0.4324,0.6505,-76.7073,-195.5488,276.3415
1595878659,1.3444,-0.4647,0.5668,-69.7561,-186.2195,291.7073
1595878659,1.4163,-0.4269,0.4109,-60.0610,-180.2439,305.3659
1595878659,1.3593,-0.2844,0.2522,-49.2073,-179.6342,313.9024
1595878659,1.3057,-0.1625,0.1371,-43.4146,-187.7439,317.0732
1595878659,1.4053,-0.1757,0.1691,-38.9634,-204.2073,317.5610
1595878659,1.5241,-0.2030,0.2469,-29.5122,-217.3171,314.7561
1595878659,1.5682,-0.1885,0.2956,-17.5000,-217.6829,311.8293
1595878659,1.5172,-0.2039,0.2955,-9.8171,-210.7927,309.8171
1595878659,1.4665,-0.2575,0.2921,-9.2073,-209.0244,306.5244
1595878659,1.4427,-0.2626,0.3276,-8.1098,-209.8171,302.8049
1595878659,1.3856,-0.2121,0.3580,-2.6220,-203.9634,299.6342
1595878659,1.2612,-0.2007,0.3668,6.0976,-185.2439,296.5854
1595878659,1.1151,-0.2480,0.3274,15.7927,-158.1098,294.3903
1595878659,0.9541,-0.3431,0.2569,23.7805,-131.6463,295.2439
1595878659,0.8523,-0.4828,0.1827,27.3171,-115.4878,298.7805
1595878659,0.8124,-0.6626,0.1435,32.0122,-109.5732,303.5366
1595878659,0.8046,-0.8828,0.1240,37.9268,-106.4024,309.1464
1595878659,0.8470,-1.1444,0.1357,43.8415,-98.8415,319.1464
1595878659,0.8786,-1.4766,0.1923,52.9878,-83.5366,332.4390
1595878659,0.8428,-1.8809,0.2586,63.7195,-61.5854,343.2927
1595878659,0.7072,-1.9999,0.2330,75.3049,-35.4268,351.3415
1595878659,0.5270,-1.9999,0.1483,83.4756,-14.2683,352.6829
1595878659,0.3864,-1.9968,0.0103,81.7073,-6.1585,341.9512
1595878659,0.3043,-1.9984,-0.1525,74.0854,-18.1707,320.0610
1595878659,0.2836,-1.8544,-0.2574,65.1829,-53.2927,291.4634
1595878659,0.2977,-1.5988,-0.2523,49.0244,-100.7317,260.7927
1595878659,0.3931,-1.4103,-0.0109,24.2683,-150.9756,226.0366
1595878659,0.5475,-1.1784,0.3770,6.7073,-189.8781,181.4634
1595878659,0.6014,-0.9573,0.6923,-3.8415,-198.7805,130.6707
1595878659,0.4784,-0.9216,0.8011,-21.7683,-179.2683,80.4268
1595878659,0.3427,-1.0011,0.7289,-36.5854,-134.6342,26.7683
1595878659,0.2252,-1.0116,0.5222,-36.8293,-81.2805,-22.6829
1595878659,0.1189,-0.9952,0.3022,-37.0122,-40.3049,-56.5854
1595878660,0.1711,-0.9708,0.1732,-37.8659,-14.8780,-77.9268
1595878660,0.3190,-0.9604,0.1051,-31.8902,5.4268,-89.0244
1595878660,0.4125,-0.9960,0.0463,-25.4878,27.4390,-94.3902
1595878660,0.4316,-1.0533,0.0067,-20.7927,50.6707,-97.5000
1595878660,0.4344,-1.1090,-0.0121,-15.8537,69.7561,-97.3781
1595878660,0.3256,-1.1077,-0.0068,-11.4634,78.2927,-95.3659
1595878660,0.1121,-1.0430,0.0240,-9.5732,77.1951,-92.7439
1595878660,-0.0351,-0.9645,0.0757,-9.2073,68.4146,-84.6341
1595878660,-0.0459,-0.9001,0.1249,-7.3780,48.2927,-70.3049
1595878660,0.0381,-0.8833,0.1547,-4.5732,19.8780,-56.9512
1595878660,0.1241,-0.8954,0.1721,-2.6829,-3.8415,-46.8902
1595878660,0.1739,-0.9016,0.1712,-0.1829,-16.4634,-37.4390
1595878660,0.2026,-0.9101,0.1442,3.7195,-20.6707,-29.2683
1595878660,0.2238,-0.9143,0.1119,7.5610,-21.4634,-23.1098
1595878660,0.2534,-0.9072,0.0899,10.9146,-22.4390,-19.2073
1595878660,0.2463,-0.8719,0.0647,15.0000,-21.2805,-16.7683
1595878660,0.1536,-0.8239,0.0410,17.3780,-15.6098,-15.6707
1595878660,0.0756,-0.8122,0.0279,15.8537,-9.3902,-13.7805
1595878660,0.0965,-0.8423,0.0309,13.5976,-6.9512,-10.4268
1595878660,0.1310,-0.8896,0.0455,12.8049,-6.3415,-8.4756
1595878660,0.1520,-0.9288,0.0749,10.7927,-5.6707,-7.7439
1595878660,0.1819,-0.9517,0.0989,9.5122,-5.2439,-6.7683
1595878660,0.1943,-0.9642,0.1075,9.0854,-3.9634,-7.3780
1595878660,0.1781,-0.9697,0.0979,8.6585,-0.0610,-8.2317
1595878660,0.1562,-0.9655,0.0872,8.6585,4.8780,-8.8415
1595878660,0.1528,-0.9623,0.0817,8.0488,7.9878,-9.3293
1595878660,0.1410,-0.9632,0.0815,7.1951,9.8171,-10.0610
1595878660,0.1110,-0.9483,0.0805,5.9146,11.6463,-10.9756
1595878660,0.1004,-0.9350,0.0850,4.6341,12.7439,-11.4024
1595878660,0.1125,-0.9369,0.0862,3.8415,11.0976,-11.9512
1595878660,0.1297,-0.9471,0.0964,2.9268,7.5000,-12.6829
1595878660,0.1412,-0.9449,0.1023,2.3171,4.3902,-12.5610
1595878660,0.1317,-0.9301,0.0978,2.0122,3.5976,-12.4390
1595878660,0.1147,-0.9201,0.0922,1.7683,3.7195,-12.8049
1595878660,0.1190,-0.9205,0.0962,1.4634,2.9268,-12.0732
1595878660,0.1282,-0.9136,0.1017,1.5854,0.4268,-10.9146
1595878660,0.1224,-0.8972,0.0991,1.7683,-2.1341,-10.3659
1595878660,0.1237,-0.9014,0.1034,1.2195,-4.7561,-9.7561
1595878660,0.1340,-0.9260,0.1454,0.3659,-8.4146,-8.8415
1595878660,0.1434,-0.9451,0.1794,0.0000,-13.5976,-7.8049
1595878660,0.1302,-0.9484,0.2005,0.5488,-21.0366,-7.4390
1595878660,0.0781,-0.9545,0.2353,-0.9756,-30.5488,-7.6220
1595878660,0.0279,-0.9520,0.2372,-3.8415,-42.8659,-7.9268
1595878660,0.0322,-0.9503,0.2026,-5.0610,-62.6220,-8.1707
1595878660,0.0891,-0.9492,0.1677,-5.6707,-85.7927,-8.1098
1595878660,0.1580,-0.9479,0.1505,-6.5244,-104.6951,-7.7439
1595878660,0.2301,-0.9493,0.1531,-7.2561,-115.7317,-6.8902
1595878660,0.2893,-0.9678,0.1573,-8.1098,-118.7805,-5.9756
1595878660,0.3584,-0.9811,0.1827,-8.5366,-115.0610,-5.3659
1595878660,0.4193,-0.9788,0.2081,-7.9878,-104.7561,-5.2439
1595878660,0.4310,-0.9604,0.2148,-6.2805,-86.9512,-5.8537
1595878660,0.3994,-0.9464,0.2117,-3.9024,-63.7805,-6.7683
1595878660,0.3658,-0.9415,0.2039,-2.1341,-40.3659,-7.1951
1595878660,0.3351,-0.9380,0.1813,0.1829,-19.2683,-7.8659
1595878660,0.2862,-0.9375,0.1511,2.4390,-0.3659,-8.6585
1595878660,0.2464,-0.9429,0.1365,3.4146,14.8780,-8.1098
1595878660,0.2510,-0.9431,0.1218,4.2073,24.0244,-6.0976
1595878660,0.2554,-0.9346,0.1154,5.4268,29.3902,-4.9390
1595878660,0.2481,-0.9300,0.1058,5.8537,33.3537,-4.0854
1595878660,0.2463,-0.9293,0.0969,5.8537,36.4634,-2.7439
1595878660,0.2499,-0.9283,0.0872,5.7927,38.1098,-1.8293
1595878660,0.2594,-0.9329,0.0798,5.7927,39.3902,-1.3415
1595878660,0.2596,-0.9373,0.0724,5.4878,41.5244,-1.4024
1595878660,0.2612,-0.9421,0.0648,5.4268,44.5732,-1.7073
1595878660,0.2695,-0.9448,0.0601,5.5488,48.2317,-2.4390
1595878660,0.2665,-0.9422,0.0547,5.7317,52.1341,-3.2317
1595878660,0.2634,-0.9395,0.0500,5.1829,54.9390,-3.9634
1595878660,0.2731,-0.9344,0.0457,4.2683,55.9756,-5.0000
1595878660,0.2894,-0.9315,0.0471,3.1098,55.9756,-6.2805
1595878660,0.2988,-0.9255,0.0474,1.0366,55.1829,-7.5000
1595878660,0.3085,-0.9193,0.0469,-1.1585,54.3902,-8.7805
1595878660,0.3262,-0.9169,0.0502,-3.2927,54.6341,-9.9390
1595878660,0.3336,-0.9032,0.0529,-5.0000,56.5244,-11.0366
1595878660,0.3351,-0.8977,0.0491,-6.8902,60.0000,-11.8902
1595878660,0.3398,-0.8943,0.0529,-9.0244,64.2073,-12.4390
1595878660,0.3405,-0.9004,0.0615,-10.9756,68.5366,-13.1707
1595878660,0.3408,-0.9036,0.0714,-12.2561,72.9878,-14.0244
1595878660,0.3417,-0.8978,0.0754,-12.9268,77.6829,-14.8171
1595878660,0.3495,-0.8888,0.0748,-13.9634,81.6463,-15.1829
1595878660,0.3562,-0.8831,0.0729,-15.4878,85.1829,-16.0366
1595878660,0.3630,-0.8807,0.0707,-16.5244,88.8415,-16.9512
1595878660,0.3534,-0.8875,0.0712,-17.1951,93.1707,-17.8659
1595878660,0.3427,-0.8941,0.0748,-18.2927,97.3781,-18.6585
1595878660,0.3425,-0.8934,0.0851,-19.3293,99.6341,-18.9024
1595878660,0.3317,-0.8829,0.0947,-20.6098,100.1829,-18.3537
1595878660,0.3192,-0.8755,0.0909,-22.3171,100.8537,-19.1463
1595878660,0.3165,-0.8816,0.0896,-23.9634,101.2195,-19.5122
1595878660,0.3191,-0.8882,0.0902,-25.9146,100.0000,-18.7805
1595878660,0.3264,-0.8916,0.0906,-27.6829,97.3781,-18.7195
1595878660,0.3397,-0.8935,0.0941,-29.0244,95.1220,-18.8415
1595878660,0.3521,-0.8991,0.0992,-30.2439,94.5732,-18.9634
1595878660,0.3595,-0.9086,0.0998,-31.2805,95.7317,-19.0854
1595878660,0.3676,-0.9121,0.1010,-31.6463,98.4756,-19.4512
1595878660,0.3713,-0.9142,0.1042,-31.3415,102.5610,-20.0000
1595878660,0.3749,-0.9088,0.0994,-30.4268,107.5610,-20.9146
1595878660,0.3726,-0.9067,0.0900,-29.8171,112.3781,-21.8902
1595878660,0.3636,-0.9169,0.0834,-29.6341,115.9146,-23.1098
1595878660,0.3623,-0.9252,0.0732,-29.6951,117.6220,-24.5122
1595878660,0.3655,-0.9227,0.0647,-29.1463,117.9878,-24.9390
1595878660,0.3647,-0.9230,0.0595,-28.3537,118.4756,-25.7317
1595878660,0.3609,-0.9420,0.0502,-27.9878,120.0610,-27.2561
1595878660,0.3510,-0.9661,0.0413,-27.8659,122.0122,-27.7439
1595878660,0.3494,-0.9835,0.0338,-27.2561,122.5610,-27.3171
1595878660,0.3616,-0.9987,0.0297,-26.3415,120.7317,-27.5000
1595878660,0.3713,-1.0126,0.0222,-25.0000,118.1098,-27.8049
1595878660,0.3681,-1.0179,0.0204,-23.3537,116.5854,-28.2317
1595878660,0.3617,-1.0151,0.0189,-21.5244,115.3659,-28.0488
1595878661,0.3667,-1.0124,0.0154,-20.4878,113.5366,-27.3780
1595878661,0.3777,-1.0065,0.0114,-19.5122,110.7317,-26.8293
1595878661,0.3801,-0.9929,0.0104,-18.2317,107.3171,-26.1585
1595878661,0.3785,-0.9854,0.0066,-16.7073,104.9390,-25.9756
1595878661,0.3757,-0.9843,-0.0023,-15.3049,103.2317,-25.9146
1595878661,0.3674,-0.9843,-0.0035,-14.5732,101.1585,-25.1220
1595878661,0.3652,-0.9809,-0.0050,-13.9024,98.2317,-24.2683
1595878661,0.3627,-0.9706,-0.0018,-12.9878,94.6341,-23.8415
1595878661,0.3651,-0.9579,-0.0028,-12.4390,90.5488,-23.7195
1595878661,0.3649,-0.9472,-0.0024,-11.7073,87.2561,-23.7195
1595878661,0.3682,-0.9402,0.0037,-11.0976,84.8781,-23.5366
1595878661,0.3737,-0.9312,0.0076,-10.6098,83.1098,-23.0488
1595878661,0.3718,-0.9207,0.0150,-10.2439,81.7683,-22.2561
1595878661,0.3729,-0.9167,0.0182,-9.8171,81.2805,-22.0732
1595878661,0.3725,-0.9184,0.0221,-9.5732,81.5854,-21.9512
1595878661,0.3693,-0.9164,0.0221,-9.0244,82.6220,-21.4024
1595878661,0.3583,-0.9197,0.0190,-8.5366,84.2073,-20.6707
1595878661,0.3521,-0.9222,0.0185,-8.1707,85.3659,-20.1220
1595878661,0.3501,-0.9243,0.0240,-7.1951,86.4024,-19.5732
1595878661,0.3423,-0.9138,0.0243,-5.4878,88.3537,-19.0244
1595878661,0.3355,-0.9078,0.0237,-4.6341,90.3049,-18.1707
1595878661,0.3325,-0.9115,0.0242,-4.1463,91.5854,-17.0732
1595878661,0.3279,-0.9177,0.0265,-3.3537,92.4390,-15.9756
1595878661,0.3210,-0.9163,0.0297,-2.2561,93.0488,-14.5122
1595878661,0.3121,-0.9143,0.0373,-1.2195,93.7195,-12.8659
1595878661,0.3067,-0.9129,0.0434,0.0000,94.4512,-11.2805
1595878661,0.2994,-0.9111,0.0514,1.0976,95.0000,-9.6951
1595878661,0.2896,-0.9073,0.0586,2.2561,94.8171,-8.0488
1595878661,0.2815,-0.9001,0.0611,3.4756,94.2073,-6.7073
1595878661,0.2734,-0.8938,0.0615,4.5732,93.4756,-5.5488
1595878661,0.2612,-0.8913,0.0661,5.1220,92.6220,-4.5122
1595878661,0.2475,-0.8906,0.0702,5.4268,91.8293,-3.2927
1595878661,0.2372,-0.8965,0.0748,5.9756,90.4878,-1.6463
1595878661,0.2262,-0.8978,0.0858,6.4634,88.7195,-0.0610
1595878661,0.2116,-0.8887,0.0970,6.9512,86.8902,1.4634
1595878661,0.1954,-0.8812,0.1091,7.1341,84.5122,2.6220
1595878661,0.1841,-0.8704,0.1157,7.3171,81.6463,3.5366
1595878661,0.1692,-0.8652,0.1213,7.6220,78.2927,4.5122
1595878661,0.1530,-0.8676,0.1198,7.8049,74.4512,5.7317
1595878661,0.1336,-0.8921,0.1085,7.9268,70.2439,7.3780
1595878661,0.1152,-0.9282,0.0999,7.8659,65.2439,9.6341
1595878661,0.1010,-0.9756,0.0943,7.1341,59.2683,13.1707
1595878661,0.0941,-1.0302,0.0966,6.4024,52.3781,17.7439
1595878661,0.0869,-1.0661,0.1025,6.2195,45.3659,22.8049
1595878661,0.0776,-1.0710,0.1035,5.9756,38.2317,27.5000
1595878661,0.0706,-1.0544,0.1016,5.0610,30.3049,31.4634
1595878661,0.0760,-1.0208,0.1045,2.8659,21.8293,34.8171
1595878661,0.0908,-0.9987,0.1131,0.3049,13.5976,37.5610
1595878661,0.1017,-0.9908,0.1301,-1.8293,6.9512,39.9390
1595878661,0.1119,-0.9825,0.1472,-3.2927,2.0122,42.2561
1595878661,0.1273,-0.9673,0.1660,-5.0610,-2.1951,43.6585
1595878661,0.1441,-0.9609,0.1902,-7.5610,-6.0366,43.7805
1595878661,0.1542,-0.9568,0.2122,-9.5732,-7.5610,42.6829
1595878661,0.1538,-0.9481,0.2290,-11.5854,-6.0366,40.6707
1595878661,0.1525,-0.9460,0.2509,-14.2073,-2.8659,38.1098
1595878661,0.1614,-0.9484,0.2699,-16.4024,0.9146,35.3049
1595878661,0.1680,-0.9544,0.2795,-17.8659,5.3049,32.3171
1595878661,0.1678,-0.9481,0.2870,-19.3902,10.6707,29.5122
1595878661,0.1699,-0.9388,0.2868,-20.6098,16.5854,27.1341
1595878661,0.1717,-0.9336,0.2798,-21.5854,22.5000,25.2439
1595878661,0.1745,-0.9351,0.2718,-22.0122,28.2927,23.6585
1595878661,0.1766,-0.9314,0.2661,-21.7073,34.0244,22.4390
1595878661,0.1796,-0.9217,0.2671,-20.9146,39.6341,21.5854
1595878661,0.1793,-0.9158,0.2726,-19.7561,45.0000,21.5244
1595878661,0.1764,-0.9102,0.2794,-18.5366,49.8171,21.8293
1595878661,0.1752,-0.8999,0.2842,-16.8902,53.3537,22.0732
1595878661,0.1762,-0.8896,0.2972,-15.5488,55.6098,22.0732
1595878661,0.1733,-0.8818,0.2997,-13.8415,56.8293,22.0122
1595878661,0.1665,-0.8763,0.3024,-11.8293,57.6220,21.5244
1595878661,0.1552,-0.8696,0.3026,-10.0610,57.8659,20.9756
1595878661,0.1470,-0.8607,0.3013,-8.6585,57.2561,20.6098
1595878661,0.1498,-0.8558,0.3010,-7.1341,55.9146,19.7561
1595878661,0.1474,-0.8480,0.3024,-5.4878,54.0244,18.4146
1595878661,0.1430,-0.8426,0.3030,-4.5122,51.7073,16.5854
1595878661,0.1443,-0.8376,0.3031,-3.9024,48.7805,14.4512
1595878661,0.1490,-0.8354,0.3050,-2.8659,45.7317,12.1951
1595878662,0.1454,-0.8362,0.3015,-1.6463,43.5366,9.4512
1595878662,0.1335,-0.8391,0.2930,-0.6098,42.5000,6.9512
1595878662,0.1265,-0.8409,0.2917,-0.1220,40.9756,4.7561
1595878662,0.1293,-0.8380,0.2874,0.1220,37.9268,2.8659
1595878662,0.1349,-0.8365,0.2823,0.4268,33.9024,1.0976
1595878662,0.1465,-0.8407,0.2812,0.2439,30.0610,-0.4878
1595878662,0.1597,-0.8490,0.2834,0.0610,26.9512,-1.6463
1595878662,0.1728,-0.8541,0.2899,0.0000,24.8780,-2.4390
1595878662,0.1935,-0.8538,0.2957,-0.3659,23.7805,-3.2927
1595878662,0.2133,-0.8591,0.3088,-0.9146,24.0854,-4.3293
1595878662,0.2255,-0.8644,0.3254,-1.4634,26.2195,-5.1829
1595878662,0.2296,-0.8593,0.3394,-2.0122,29.9390,-6.0366
1595878662,0.2383,-0.8581,0.3537,-2.7439,34.1463,-7.0732
1595878662,0.2432,-0.8525,0.3593,-3.1098,38.7805,-8.6585
1595878662,0.2375,-0.8505,0.3523,-2.8049,44.2073,-10.7317
1595878662,0.2306,-0.8459,0.3374,-2.8659,49.9390,-12.9268
1595878662,0.2255,-0.8380,0.3224,-2.8049,55.0000,-15.4878
1595878662,0.2195,-0.8401,0.3114,-2.3780,59.4512,-18.2927
1595878662,0.2029,-0.8538,0.3058,-1.5244,63.2317,-20.8537
1595878662,0.1896,-0.8674,0.3000,0.0610,66.4024,-22.9268
1595878662,0.1565,-0.8828,0.2932,3.9024,70.0000,-26.1585
1595878662,0.1263,-0.9041,0.2781,7.5000,67.5610,-29.1463
1595878662,0.0956,-0.9653,0.2544,14.1463,46.2805,-31.7073
1595878662,0.0913,-0.9822,0.2565,15.1220,39.8171,-31.6463
1595878662,0.0914,-0.9916,0.2637,15.7317,33.0488,-31.9512
1595878662,0.0937,-0.9971,0.2660,16.1585,25.9756,-32.4390
1595878662,0.0940,-1.0032,0.2692,16.6463,19.0854,-33.4756
1595878662,0.0952,-0.9997,0.2701,16.4024,12.6829,-34.7561
1595878662,0.1009,-0.9931,0.2681,16.0976,6.0366,-36.3415
1595878662,0.1100,-0.9846,0.2628,16.0976,0.0610,-38.1707
1595878662,0.1170,-0.9743,0.2580,15.8537,-5.1829,-39.8171
1595878662,0.1208,-0.9689,0.2519,15.0610,-9.8780,-41.0366
1595878662,0.1294,-0.9854,0.2423,14.0244,-13.9634,-41.8902
1595878662,0.1334,-1.0261,0.2319,13.2317,-17.0122,-42.2561
1595878662,0.1334,-1.0767,0.2274,12.5610,-18.5366,-41.4634
1595878662,0.1309,-1.1195,0.2289,11.3415,-19.2073,-39.2073
1595878662,0.1327,-1.1504,0.2355,9.9390,-19.3902,-36.1585
1595878662,0.1423,-1.1649,0.2458,8.3537,-19.5732,-32.8659
1595878662,0.1617,-1.1654,0.2595,6.4634,-19.5122,-29.4512
1595878662,0.1821,-1.1437,0.2752,4.5122,-19.0854,-26.3415
1595878662,0.2382,-1.1028,0.3168,-0.1220,-10.0000,-21.2805
1595878662,0.2462,-1.0862,0.3224,-0.0610,-3.0488,-20.0610
1595878662,0.2440,-1.0433,0.3270,0.1829,5.3659,-20.3049
1595878662,0.2299,-0.9996,0.3312,-0.4268,13.6585,-22.8049
1595878662,0.2242,-0.9713,0.3269,-1.0366,21.4024,-26.4024
1595878662,0.2210,-0.9604,0.3157,0.3659,29.5732,-30.1220
1595878662,0.2018,-0.9550,0.2966,2.8049,38.2317,-33.6585
1595878662,0.1898,-0.9565,0.2813,4.7561,46.7073,-36.4634
1595878662,0.1913,-0.9577,0.2698,6.9512,53.4146,-38.0488
1595878662,0.1998,-0.9567,0.2684,9.2073,58.0488,-39.0854
1595878662,0.2046,-0.9611,0.2656,11.2195,61.9512,-39.5122
1595878662,0.2089,-0.9666,0.2584,13.4146,66.0976,-39.0854
1595878662,0.2098,-0.9698,0.2563,16.0976,69.8171,-37.7439
1595878662,0.1882,-0.9891,0.2498,22.6220,75.9756,-33.5976
1595878662,0.2137,-0.9733,0.2375,29.8780,75.1829,-29.3902
1595878662,0.3013,-0.9144,0.2541,41.7683,61.1585,-28.2927
1595878662,0.2879,-0.8875,0.2566,45.7317,60.3659,-32.9268
1595878662,0.2737,-0.8699,0.2441,46.6463,59.1463,-35.9756
1595878662,0.2621,-0.8510,0.2296,46.5854,55.4268,-39.0244
1595878662,0.2543,-0.8297,0.2155,46.5244,50.2439,-42.1951
1595878662,0.3053,-0.8284,0.2581,44.0854,29.2073,-50.7927
1595878662,0.2781,-0.8544,0.2712,43.5366,23.5366,-49.2683
1595878662,0.3055,-0.8316,0.2619,40.9756,1.3415,-47.6829
1595878663,0.3065,-0.8398,0.2606,41.2805,-4.0854,-46.4634
1595878663,0.3075,-0.8502,0.2621,41.8293,-7.4390,-44.2073
1595878663,0.3143,-0.8527,0.2657,40.9756,-10.3659,-41.6463
1595878663,0.3293,-0.8531,0.2753,40.1829,-14.0854,-40.1220
1595878663,0.3398,-0.8529,0.2828,40.0000,-17.5000,-39.8171
1595878663,0.3373,-0.8492,0.2827,40.0610,-19.6951,-40.1829
1595878663,0.3437,-0.8425,0.2803,39.0244,-21.6463,-40.4878
1595878663,0.3557,-0.8387,0.2813,37.3780,-24.0244,-40.4268
1595878663,0.3737,-0.8408,0.2861,35.4878,-26.7683,-40.4878
1595878663,0.3788,-0.8376,0.2957,32.8659,-29.0244,-40.6707
1595878663,0.3610,-0.8078,0.2927,30.0000,-29.8171,-41.0976
1595878663,0.3722,-0.8237,0.3533,17.5610,-38.1707,-40.0610
1595878663,0.3964,-0.8007,0.3705,15.9146,-46.0976,-39.7561
1595878663,0.3766,-0.7581,0.3643,15.9146,-49.0854,-40.4878
1595878663,0.3464,-0.7393,0.3583,13.4756,-48.2927,-40.2439
1595878663,0.3484,-0.7450,0.3620,10.9146,-47.7439,-39.3902
1595878663,0.3774,-0.7517,0.3834,10.0000,-48.3537,-37.8659
1595878663,0.4146,-0.7662,0.4062,9.2683,-48.2317,-35.4878
1595878663,0.5148,-0.8914,0.4954,4.2683,-40.9756,-26.5244
1595878663,0.5484,-0.9342,0.5568,2.3780,-33.7195,-19.8780
1595878663,0.5483,-0.9393,0.6018,1.0366,-25.8537,-13.2927
1595878663,0.5466,-0.9120,0.6398,-5.8537,-22.1951,-3.6585
1595878663,0.6810,-0.3795,0.3657,-4.0854,-18.6585,-43.2317
1595878663,0.6645,-0.3686,0.3202,-7.6220,-22.5610,-44.3902
1595878663,0.6233,-0.3839,0.2720,-18.2317,-36.6463,-44.2683
1595878663,0.6294,-0.3878,0.2664,-21.7073,-46.7683,-42.8659
1595878664,0.6630,-0.4020,0.2369,-30.4268,-69.8781,-35.1829
1595878664,0.6956,-0.4765,0.1096,-43.1707,-83.4756,-20.7927
1595878664,0.7463,-0.4617,0.1317,-41.8902,-82.4390,-13.3537
1595878664,0.7142,-0.4547,0.1243,-40.1829,-73.1098,-10.4878
1595878664,0.6528,-0.5335,0.0808,-37.2561,-44.8171,-4.1463
1595878664,0.6832,-0.5871,0.0845,-36.6463,-34.7561,-0.4268
1595878664,0.5547,-0.6578,0.0349,-33.9024,-4.8780,4.2073
1595878664,0.5988,-0.7184,-0.0173,-22.5000,0.9756,25.1829
1595878664,0.5817,-0.8824,0.0136,-13.0488,-3.7805,58.3537
1595878664,0.4547,-0.8396,0.0437,-8.1707,33.5976,62.8049
1595878664,0.4304,-0.9305,0.1461,-15.1829,31.4024,57.8659
1595878664,0.4758,-0.9605,0.1845,-14.5122,28.5366,55.9756
1595878664,0.4506,-0.9720,0.1493,-12.3171,24.9390,50.6707
1595878664,0.4207,-0.9047,0.0275,-8.4146,1.1585,42.1951
1595878664,0.4527,-0.9087,0.0567,-9.2073,-4.8780,39.5122
1595878664,0.5536,-0.9642,0.0380,-8.1098,31.0976,38.5976
1595878664,0.2324,-0.9661,0.1802,-6.1585,54.2073,37.0732
1595878664,0.5790,-1.0010,0.1541,-5.3659,39.8171,34.6951
1595878664,0.3088,-1.0122,0.4019,-11.7073,107.6829,40.5488
1595878664,0.2430,-0.9462,0.4144,-2.5610,85.4878,38.0488
1595878664,0.5869,-1.0928,0.3486,-16.5854,-28.1098,-23.8415
1595878664,0.3727,-0.9443,0.0404,-19.6341,-115.9146,-33.5976
1595878664,0.3921,-0.9329,-0.3985,-42.5000,-117.1951,-38.2317
1595878664,0.4688,-0.8107,-0.5526,-41.4634,-159.5732,-47.4390
1595878664,0.4921,-0.8855,-0.2095,-48.7805,-122.1341,-60.7927
1595878664,0.4068,-0.8755,-0.2598,-45.4878,-94.3902,-55.4878
1595878664,0.4459,-0.8983,-0.2872,-41.9512,-68.5366,-49.7561
1595878664,0.4868,-0.9046,-0.3729,-38.5976,-42.7439,-45.3049
1595878664,0.4577,-0.9313,-0.4642,-35.8537,-12.5610,-41.2195
1595878664,0.4595,-0.9456,-0.5062,-35.6098,11.7683,-38.0488
1595878664,0.5295,-0.8914,-0.5366,-43.5976,5.1829,-42.9268
1595878664,0.5078,-0.8477,-0.5151,-41.5854,-2.0732,-44.3293
1595878664,0.4829,-0.7733,-0.5949,-29.9390,-20.7317,-45.1220
1595878664,0.3971,-0.7084,-0.6566,-22.7439,-43.9024,-30.8537
1595878664,0.3798,-0.6776,-0.6363,-9.8171,-37.6829,-8.9024
1595878664,0.3466,-0.5703,-0.7878,7.9878,-44.8780,-9.6951
1595878664,0.4048,-0.5751,-0.7650,14.5122,-43.4146,-11.6463
1595878664,0.4166,-0.5582,-0.7342,19.9390,-39.8171,-12.5000
1595878664,0.3896,-0.5798,-0.7532,24.2683,-32.3780,-14.5122
1595878664,0.4215,-0.5845,-0.8038,28.4146,-35.6098,-19.9390
1595878664,0.4554,-0.5541,-0.7618,31.9512,-47.5000,-26.4634
1595878664,0.3941,-0.4619,-0.7400,37.2561,-54.8171,-33.2317
1595878664,0.3904,-0.4427,-0.7891,57.9878,-67.5610,-56.6463
1595878664,0.4110,-0.4387,-0.8195,80.5488,-45.0000,-87.5610
1595878664,0.4033,-0.5913,-0.8638,115.7317,11.2805,-88.5976
1595878664,0.4261,-0.6201,-0.8783,121.7073,14.5732,-86.4634
1595878664,0.4921,-0.6012,-0.8574,125.1220,7.1341,-85.0610
1595878664,0.5110,-0.5705,-0.8462,129.8171,-1.8293,-83.3537
1595878664,0.4961,-0.5651,-0.8376,134.5732,-8.5976,-80.6098
1595878664,0.5112,-0.5558,-0.8044,137.5000,-20.4878,-78.9634
1595878664,0.5402,-0.5287,-0.7532,138.7195,-35.1829,-77.7439
1595878664,0.5244,-0.4955,-0.7149,138.9024,-44.6951,-76.3415
1595878664,0.5008,-0.4810,-0.6807,138.5366,-48.9634,-74.8781
1595878664,0.5161,-0.4744,-0.6486,137.8049,-54.9390,-72.6829
1595878664,0.5189,-0.4632,-0.6321,137.6829,-63.6585,-70.7927
1595878664,0.5492,-0.4700,-0.6182,137.3171,-72.9268,-68.5976
1595878664,0.5834,-0.4834,-0.6249,137.8049,-82.9268,-66.2195
1595878664,0.5895,-0.4398,-0.7427,140.7927,-101.2805,-60.9756
1595878664,0.5990,-0.4278,-0.7704,141.7073,-107.2561,-58.4756
1595878664,0.6138,-0.4262,-0.7668,139.6951,-109.4512,-54.8781
1595878664,0.6347,-0.4381,-0.7388,135.1219,-108.1098,-51.1585
1595878664,0.6577,-0.4570,-0.7026,130.3049,-106.3415,-49.0244
1595878664,0.6672,-0.4682,-0.6694,126.2195,-104.8781,-48.8415
1595878664,0.6485,-0.4529,-0.6417,123.5976,-101.5244,-49.8781
1595878664,0.6371,-0.4447,-0.6154,122.5610,-95.7927,-50.9146
1595878664,0.6323,-0.4334,-0.6107,122.5610,-90.1829,-51.8902
1595878664,0.6292,-0.3853,-0.6324,122.7439,-86.3415,-53.4146
1595878665,0.6228,-0.3553,-0.6448,123.7195,-82.4390,-54.8171
1595878665,0.6365,-0.3824,-0.6273,124.2073,-78.4146,-56.6463
1595878665,0.6411,-0.3871,-0.6078,124.2073,-75.7927,-58.4756
1595878665,0.6007,-0.3805,-0.6048,124.7561,-74.2683,-60.5488
1595878665,0.5772,-0.3893,-0.6078,124.0854,-75.8537,-63.1707
1595878665,0.5778,-0.3838,-0.6071,122.6220,-79.8171,-65.3659
1595878665,0.5843,-0.3882,-0.6086,120.9146,-81.4024,-66.2195
1595878665,0.5972,-0.3980,-0.6077,119.8781,-81.4024,-66.7073
1595878665,0.5889,-0.3948,-0.6095,119.3902,-81.5854,-67.1341
1595878665,0.5764,-0.4014,-0.5994,118.1707,-81.7073,-67.1341
1595878665,0.5269,-0.3945,-0.5766,116.5854,-83.4146,-66.7683
1595878665,0.5537,-0.3571,-0.5817,115.0610,-89.4512,-66.5854
1595878665,0.6102,-0.3725,-0.5774,114.2073,-96.4634,-66.8293
1595878665,0.6211,-0.4211,-0.5720,113.4146,-100.2439,-67.6220
1595878665,0.6046,-0.4491,-0.5609,112.3781,-101.0976,-67.1341
1595878665,0.5882,-0.4593,-0.5574,112.2561,-100.6098,-67.3781
1595878665,0.6100,-0.4820,-0.5546,112.8049,-99.0244,-66.7073
1595878665,0.6119,-0.5071,-0.5752,113.1707,-97.1341,-65.7927
1595878665,0.5914,-0.5236,-0.5922,113.2317,-97.6220,-65.6707
1595878665,0.6268,-0.5551,-0.5894,112.0122,-101.4634,-65.5488
1595878665,0.6727,-0.5905,-0.5762,109.5732,-106.2805,-63.9634
1595878665,0.6588,-0.5999,-0.5718,107.2561,-109.6951,-62.7439
1595878665,0.6616,-0.6066,-0.5718,105.3049,-113.5366,-62.3781
1595878665,0.6833,-0.6094,-0.5612,103.6585,-119.0244,-62.0122
1595878665,0.6942,-0.5928,-0.5368,102.5000,-123.3537,-61.4634
1595878665,0.7080,-0.5696,-0.5167,101.6463,-124.6951,-60.5488
1595878665,0.7382,-0.5450,-0.5456,100.3049,-124.2073,-60.1220
1595878665,0.7880,-0.5583,-0.5793,98.3537,-123.1098,-60.1829
1595878665,0.7838,-0.6071,-0.5513,96.5854,-120.9756,-60.6098
1595878665,0.7550,-0.6246,-0.4828,93.8415,-115.6098,-59.3293
1595878665,0.7616,-0.6248,-0.4281,91.5854,-108.7805,-56.5244
1595878665,0.7729,-0.6353,-0.3842,90.0000,-104.0244,-53.6585
1595878665,0.7560,-0.6384,-0.3663,88.9634,-101.3415,-52.6220
1595878665,0.7539,-0.6461,-0.3573,88.4146,-98.5976,-52.1951
1595878665,0.7822,-0.6543,-0.3641,88.3537,-96.4634,-51.2195
1595878665,0.7798,-0.6354,-0.3759,88.7195,-94.7561,-50.8537
1595878665,0.7740,-0.6010,-0.3845,88.4756,-91.4024,-51.8293
1595878665,0.8265,-0.5694,-0.4039,87.2561,-87.9268,-51.6463
1595878665,0.8575,-0.5490,-0.4266,85.4878,-83.9024,-52.6220
1595878665,0.8202,-0.5293,-0.4304,83.9024,-75.7927,-54.4512
1595878665,0.7729,-0.5154,-0.4212,81.9512,-66.3415,-54.5732
1595878665,0.7633,-0.5102,-0.3996,79.3293,-60.1220,-54.3902
1595878665,0.7704,-0.5185,-0.3560,77.3781,-56.4024,-53.9634
1595878665,0.7402,-0.5142,-0.3423,76.0366,-53.4756,-53.5366
1595878665,0.7428,-0.5139,-0.3364,74.5122,-53.4756,-54.1463
1595878665,0.7364,-0.4976,-0.3510,73.4146,-54.0854,-54.6951
1595878665,0.7275,-0.4675,-0.3710,72.2561,-51.6463,-54.6951
1595878665,0.7622,-0.4639,-0.3871,71.0976,-49.0244,-54.7561
1595878665,0.8062,-0.4712,-0.3908,69.2683,-45.1220,-53.4146
1595878665,0.8273,-0.4472,-0.4100,67.8049,-38.1098,-52.0122
1595878665,0.8551,-0.4465,-0.4106,66.2805,-29.9390,-50.4878
1595878665,0.8143,-0.4942,-0.4007,65.6098,-20.4878,-49.5732
1595878665,0.7886,-0.5596,-0.4035,66.8902,-9.2683,-46.2805
1595878665,0.8428,-0.5773,-0.4156,68.6585,-1.0976,-40.6098
1595878665,0.9156,-0.5704,-0.4896,71.0976,3.1707,-34.3902
1595878665,0.9449,-0.5933,-0.6107,74.2073,8.0488,-28.5976
1595878665,0.9858,-0.6281,-0.6716,75.8537,14.7561,-23.7805
1595878665,1.0471,-0.6592,-0.7190,75.3049,21.8293,-18.1707
1595878665,1.0413,-0.6661,-0.7479,74.5732,31.5244,-13.7805
1595878665,1.0281,-0.6575,-0.7151,72.0122,41.6463,-11.9512
1595878665,1.0253,-0.6323,-0.6550,68.4756,50.4878,-10.4268
1595878665,1.0147,-0.6008,-0.6029,65.1829,60.3049,-9.7561
1595878665,1.0209,-0.5825,-0.5612,61.9512,69.5122,-10.1220
1595878665,1.0055,-0.5631,-0.4869,59.2073,77.5610,-11.4634
1595878665,1.0158,-0.5289,-0.4384,57.5000,85.6707,-11.7683
1595878665,1.0323,-0.5082,-0.4138,57.0122,94.2073,-12.3171
1595878666,1.0046,-0.4853,-0.3890,56.5854,104.8781,-13.1707
1595878666,0.9721,-0.4642,-0.3540,56.0976,115.4878,-13.2927
1595878666,0.9638,-0.4556,-0.2818,55.3049,139.2073,-13.7805
1595878666,0.9745,-0.4310,-0.2585,54.6951,152.7439,-13.8415
1595878666,0.9852,-0.4080,-0.2549,54.0854,167.8049,-14.3902
1595878666,0.9531,-0.3934,-0.2275,52.5000,186.2195,-15.0000
1595878666,0.9033,-0.3566,-0.1908,51.8293,204.6951,-14.6951
1595878666,0.8679,-0.3336,-0.1687,49.8781,214.6342,-14.1463
1595878666,0.8668,-0.3217,-0.1291,46.2195,214.0854,-15.5488
1595878666,0.8876,-0.2888,-0.0071,39.3902,203.1707,-18.2317
1595878666,0.8702,-0.2840,0.0072,38.0488,202.2561,-20.6707
1595878666,0.8747,-0.2993,0.0538,26.6463,177.5610,-29.0244
1595878666,0.8607,-0.3111,0.0939,22.5000,167.6219,-30.1829
1595878666,0.8707,-0.3083,0.1140,19.0244,156.2805,-31.1585
1595878666,0.9523,-0.4053,0.2452,-4.4512,69.6951,-42.3780
1595878666,0.9042,-0.3962,0.3070,-7.0122,55.4268,-46.9512
1595878666,0.9492,-0.3970,0.3432,-5.0610,48.0488,-52.0732
1595878666,0.9665,-0.4119,0.3359,-4.0854,48.9024,-53.2317
1595878666,0.9913,-0.4274,0.3513,-3.1098,50.7927,-54.3902
1595878666,0.9838,-0.4140,0.3385,-0.2439,62.8049,-55.9146
1595878666,0.9819,-0.4308,0.3820,1.0366,92.1951,-57.6220
1595878666,0.7417,-0.4298,0.6243,7.9268,158.4146,-55.4268
1595878666,0.7433,-0.3702,0.7587,8.7195,160.3659,-46.8902
1595878666,0.4824,-0.4200,0.6780,-5.2439,132.3171,-35.6707
1595878666,0.5695,-0.3928,0.6918,-13.2317,106.7073,-30.4878
1595878666,0.6439,-0.3287,0.7433,-37.8049,105.8537,-50.4878
1595878666,0.6592,-0.4619,0.7388,-54.6951,107.2561,-50.2439
1595878666,0.5409,-0.4245,0.6818,-64.4512,93.9634,-51.6463
1595878666,0.5673,-0.4012,0.6046,-75.0610,53.8415,-55.0610
1595878666,0.7971,-0.3753,0.4190,-84.3293,-15.8537,-59.5122
1595878666,0.6860,-0.3947,0.4602,-91.7073,17.8049,-60.7927
1595878666,0.5941,-0.3553,0.5338,-91.7073,44.6951,-55.7317
1595878666,0.7127,-0.3688,0.5123,-90.9756,65.4878,-52.0732
1595878666,0.7841,-0.3714,0.4264,-89.3293,77.6220,-53.8415
1595878666,0.7004,-0.3715,0.4111,-88.1098,94.5122,-55.7927
1595878666,0.5366,-0.3737,0.4822,-86.6463,118.8415,-54.3293
1595878666,0.5009,-0.4123,0.5403,-84.6341,137.0732,-52.0122
1595878666,0.4362,-0.4182,0.6767,-82.7439,146.2805,-50.9146
1595878666,0.4866,-0.3657,0.6753,-82.7439,141.7073,-50.4268
1595878666,0.5189,-0.4017,0.5885,-80.4878,124.8781,-52.5610
1595878666,0.3970,-0.3803,0.5125,-77.1951,120.1220,-53.0488
1595878666,0.2950,-0.3484,0.4332,-75.1829,121.4024,-50.1220
1595878666,0.2720,-0.3516,0.3895,-75.1829,113.3537,-50.8537
1595878666,0.3013,-0.4634,0.4678,-78.7805,95.3659,-49.0854
1595878666,0.5999,-0.7071,0.6342,-86.1585,65.8537,-47.7439
1595878666,0.5942,-0.4655,0.5230,-73.1098,70.3659,-36.3415
1595878666,0.0367,-0.3991,0.4819,-68.4146,131.6463,-30.0000
1595878666,0.3804,-0.5925,0.5314,-74.2073,141.4024,-37.1341
1595878666,0.4985,-0.5369,0.4798,-71.2195,98.2927,-35.3659
1595878666,0.2883,-0.4503,0.3552,-73.6585,86.3415,-35.4878
1595878666,0.2951,-0.5804,0.5067,-83.7805,77.9878,-22.8659
1595878666,0.2328,-0.6149,0.5107,-81.3415,72.3781,-17.1341
1595878666,0.1616,-0.6515,0.6044,-72.7439,70.0610,-10.4268
1595878666,0.2434,-0.6877,0.4943,-66.0366,54.2073,-2.0122
1595878666,0.2342,-0.7098,0.4360,-59.6951,35.4268,-3.6585
1595878666,0.3668,-0.8071,0.5019,-58.1707,36.8293,0.1829
1595878666,0.3561,-0.8345,0.4970,-55.6707,37.7439,2.6220
1595878666,0.2704,-0.8303,0.4879,-56.2195,44.5732,4.1463
1595878666,0.3035,-0.9534,0.5866,-54.4512,39.9390,0.9146
1595878666,0.2360,-0.9197,0.5375,-50.4268,37.2561,1.4024
1595878666,0.2159,-0.9052,0.4487,-47.2561,39.1463,-0.9146
1595878666,0.3125,-0.9677,0.3620,-46.7683,34.3293,-3.8415
1595878666,0.3896,-1.0089,0.2974,-49.8171,20.6098,-5.8537
1595878666,0.3619,-1.0573,0.3430,-53.4146,13.2927,-4.0244
1595878666,0.2626,-1.0939,0.4174,-55.9756,17.1341,0.4878
1595878666,0.2040,-1.0985,0.4493,-58.1098,20.1829,4.7561
1595878666,0.2097,-1.0496,0.4515,-57.0732,17.6220,4.3293
1595878666,0.2465,-1.0076,0.4425,-54.0244,14.0854,1.3415
1595878666,0.2670,-0.9738,0.4385,-52.3171,14.0854,-3.2317
1595878666,0.2672,-0.9561,0.4130,-50.9756,18.6585,-6.2195
1595878666,0.2430,-0.9700,0.3935,-51.7683,24.5122,-7.0732
1595878666,0.2548,-0.9639,0.4093,-53.2317,26.7073,-7.5610
1595878666,0.2681,-0.9425,0.4199,-51.2805,26.0366,-8.1098
1595878666,0.2407,-0.9072,0.4044,-49.6951,26.6463,-9.5122
1595878666,0.2498,-0.9004,0.4089,-48.9634,28.4146,-10.7317
1595878666,0.2755,-0.9024,0.4278,-49.0244,26.5244,-13.2927
1595878666,0.2422,-0.8723,0.3980,-47.0732,27.0732,-14.7561
1595878666,0.2189,-0.8630,0.3875,-44.8780,31.4634,-15.7317
1595878666,0.2233,-0.8651,0.4018,-44.3293,32.9878,-16.7683
1595878666,0.2418,-0.8663,0.4045,-42.7439,32.1951,-17.1951
1595878666,0.2148,-0.8745,0.3987,-40.6707,36.7683,-17.8659
1595878666,0.1780,-0.8889,0.3903,-39.9390,42.5610,-17.5610
1595878666,0.1677,-0.9075,0.3774,-40.3049,44.3293,-16.8293
1595878666,0.1708,-0.9147,0.3819,-39.8780,44.7561,-16.7073
1595878666,0.1465,-0.9032,0.3731,-38.1707,45.4268,-16.4024
1595878666,0.1037,-0.8901,0.3695,-36.6463,45.5488,-14.6341
1595878666,0.1016,-0.8955,0.3698,-36.4024,44.4512,-12.9878
1595878666,0.1389,-0.9026,0.3810,-36.0976,39.2073,-11.5854
1595878666,0.1183,-0.9174,0.4230,-34.1463,34.8171,-11.2195
1595878666,0.1313,-0.9536,0.4713,-34.0244,32.4390,-8.8415
1595878666,0.1630,-0.9484,0.4518,-32.8049,26.8293,-5.6707
1595878666,0.1651,-0.9376,0.4247,-31.5244,21.3415,-4.8171
1595878666,0.1420,-0.9362,0.3947,-30.8537,18.9634,-3.8415
1595878666,0.1104,-0.9305,0.3674,-30.7927,18.3537,-2.3780
1595878666,0.1155,-0.9234,0.3673,-31.2195,16.0976,-1.3415
1595878667,0.1173,-0.9271,0.3849,-30.9146,13.2317,-1.0366
1595878667,0.0978,-0.9305,0.3727,-30.7927,10.4878,-1.1585
1595878667,0.1415,-0.9593,0.4164,-31.4024,4.2683,-0.6707
1595878667,0.1858,-0.9473,0.4324,-29.1463,-2.8659,-1.1585
1595878667,0.1532,-0.9323,0.3829,-26.0366,-3.5366,-1.5854
1595878667,0.1451,-0.9589,0.3403,-27.4390,0.6098,-1.0976
1595878667,0.1476,-0.9466,0.3483,-28.4146,1.4634,-0.6707
1595878667,0.1677,-0.9569,0.3742,-27.6220,0.4268,-0.3659
1595878667,0.1653,-0.9496,0.3801,-26.5854,-0.1220,-1.0976
1595878667,0.1620,-0.9368,0.3564,-25.0610,-0.1220,-1.0976
1595878667,0.1883,-0.9473,0.3700,-24.0244,-0.4268,-2.2561
1595878667,0.2023,-0.9442,0.4352,-22.8659,-2.3171,-3.8415
1595878667,0.1884,-0.9254,0.4065,-20.3049,-3.4756,-4.0244
1595878667,0.1790,-0.9188,0.3571,-19.3293,-2.9268,-4.5732
1595878667,0.1922,-0.9346,0.3734,-19.0244,-1.1585,-6.2805
1595878667,0.2143,-0.9525,0.3939,-17.6829,0.7317,-6.4024
1595878667,0.0513,-0.9088,0.4430,-17.6829,4.5122,-6.2805
1595878667,0.0773,-0.9314,0.5819,-17.1341,10.1829,-6.7073
1595878667,0.4741,-1.1864,0.4053,-19.4512,0.0610,0.9146
1595878667,0.2106,-0.8282,0.3938,-15.0610,-11.7073,-11.0976
1595878667,0.1194,-0.9781,0.3646,-9.4512,7.5610,-7.5000
1595878667,0.1981,-1.0229,0.3787,-16.5854,14.7561,-5.2439
1595878667,0.1761,-0.9238,0.3979,-10.6707,6.8293,-6.9512
1595878667,0.1917,-0.9446,0.3690,-8.1707,10.5488,-7.8659
1595878667,0.2390,-0.9866,0.3536,-10.0000,15.8537,-9.0854
1595878667,0.3091,-0.9994,0.3535,-10.0000,16.5244,-10.3049
1595878667,0.3010,-0.9756,0.3506,-7.9268,24.8780,-11.5244
1595878667,0.2261,-0.9471,0.3379,-5.1220,47.5000,-11.6463
1595878667,0.1687,-0.9786,0.3562,-2.9878,68.0488,-10.9146
1595878667,0.1519,-0.9900,0.3669,-1.5244,73.8415,-10.0610
1595878667,0.1204,-0.9672,0.3430,1.7073,69.3293,-9.5732
1595878667,0.1479,-0.9882,0.3334,3.3537,63.5366,-7.3780
1595878667,0.2272,-1.0103,0.3989,4.9390,57.3781,-5.3659
1595878667,0.2955,-1.0250,0.4791,11.1585,52.7439,-4.1463
1595878667,0.2626,-0.9789,0.3840,17.8049,62.6829,-3.8415
1595878667,0.0069,-0.9109,0.2823,22.3780,90.5488,-4.9390
1595878667,-0.1110,-0.9221,0.2457,18.4146,108.0488,-0.9756
1595878667,0.0383,-0.9197,0.2961,20.7927,93.5366,3.2317
1595878667,0.0912,-0.8694,0.3480,22.7439,69.6951,0.3049
1595878667,0.0400,-0.8965,0.3334,17.9268,58.0488,-7.5610
1595878667,0.0436,-0.9130,0.2950,12.5610,54.0854,-5.8537
1595878667,0.0925,-0.9247,0.2037,10.6707,54.8781,-1.0366
1595878667,-0.1017,-0.7571,0.1328,11.1585,62.3171,-4.1463
1595878667,-0.1406,-0.8391,0.1702,3.5366,73.8415,-5.1220
1595878667,-0.0703,-0.9021,0.2683,-3.7195,60.3049,-3.5976
1595878667,-0.0408,-0.8031,0.3759,5.5488,26.6463,-6.2195
1595878667,0.0078,-0.7968,0.5055,-0.4878,10.1220,0.0000
1595878667,0.0863,-0.8180,0.5180,-9.4512,1.8902,1.8293
1595878667,0.2793,-0.8541,0.4932,-10.6098,-16.7683,4.2683
1595878667,0.3213,-0.8583,0.5225,-3.2317,-23.8415,-2.3780
1595878667,0.2039,-0.8440,0.5010,-1.9512,-7.3780,-4.4512
1595878667,0.0618,-0.8032,0.4166,-3.7805,13.2927,-1.8902
1595878667,0.0371,-0.8267,0.3474,-6.2195,23.2317,0.0000
1595878667,0.1661,-0.8510,0.4249,-11.4634,20.6098,2.2561
1595878667,0.0488,-0.7596,0.4840,-10.1220,20.7317,4.3902
1595878667,-0.0936,-0.7803,0.5163,-8.5976,33.0488,4.8780
1595878667,0.0498,-0.8531,0.5533,-9.6341,39.3902,11.9512
1595878667,0.1414,-0.8026,0.5601,-4.8171,33.1707,15.7317
1595878667,0.1038,-0.7822,0.4846,-2.4390,32.0732,15.6098
1595878667,0.0880,-0.8704,0.4554,-10.0000,35.7317,15.5488
1595878667,0.0908,-0.8867,0.5107,-14.4512,31.0976,16.2195
1595878667,0.0578,-0.8796,0.5452,-10.3659,20.3049,16.4634
1595878667,0.0043,-0.8590,0.5051,-7.0122,14.3293,15.6098
1595878667,-0.0681,-0.8426,0.4193,-9.3902,11.5244,17.1341
1595878667,-0.0718,-0.8186,0.3705,-12.4390,8.4756,17.8049
1595878667,0.0256,-0.8137,0.3967,-13.5366,-0.1829,20.4878
1595878667,0.1066,-0.8603,0.4292,-14.5122,-6.2805,22.0732
1595878667,0.1127,-0.8641,0.4821,-12.9268,-2.8659,20.9146
1595878667,0.0859,-0.8547,0.4532,-8.4146,8.7195,22.0122
1595878667,0.1023,-0.8477,0.4030,-5.6098,21.6463,20.3659
1595878667,0.0683,-0.8579,0.4351,-4.2683,31.3415,18.4756
1595878667,0.0091,-0.8741,0.4689,-5.0610,35.3659,18.7805
1595878667,-0.0496,-0.8845,0.4473,-3.9634,30.4268,17.8049
1595878667,-0.0720,-0.8794,0.4225,-4.4512,18.4756,15.7317
1595878667,-0.0745,-0.8654,0.3692,-5.5488,5.4878,14.8780
1595878667,-0.0393,-0.8513,0.3613,-5.4878,-3.4756,14.9390
1595878667,0.0249,-0.8745,0.3771,-5.7317,-8.1098,16.2805
1595878667,0.0983,-0.8969,0.3903,-4.6341,-5.9146,15.3049
1595878667,0.0846,-0.8836,0.4107,-3.4146,-2.5610,15.1829
1595878667,0.0384,-0.8787,0.4141,-1.8902,5.2439,12.9268
1595878667,0.0492,-0.8785,0.4038,0.5488,12.5000,11.3415
1595878667,0.0630,-0.8940,0.3806,2.7439,18.8415,9.2683
1595878667,0.0439,-0.9083,0.3748,3.4146,25.7927,8.0488
1595878667,0.0167,-0.9244,0.3880,4.2073,31.6463,8.1098
1595878667,-0.0297,-0.9169,0.3896,4.0854,33.2927,7.8659
1595878667,-0.0563,-0.9170,0.3853,2.5610,29.5732,6.8902
1595878667,-0.0089,-0.9229,0.4080,0.6707,20.7927,5.5488
1595878667,0.0184,-0.9260,0.4317,1.0976,10.9756,4.1463
1595878667,-0.0228,-0.8971,0.4533,1.6463,5.4268,4.2073
1595878667,-0.0418,-0.9039,0.4286,3.2317,3.5366,4.0244
1595878667,0.0136,-0.9216,0.4351,3.7195,1.1585,3.1098
1595878667,0.0079,-0.8879,0.4069,4.0244,-0.4268,3.6585
1595878667,-0.0021,-0.9050,0.4000,1.9512,1.4634,3.2927
1595878667,0.0229,-0.9266,0.4409,0.4268,3.0488,1.3415
1595878667,0.0357,-0.9446,0.4776,1.1585,3.0488,-0.3659
1595878667,0.0137,-0.9537,0.4898,2.0732,3.2317,-2.2561
1595878667,-0.0508,-0.9598,0.4976,2.5000,3.9634,-4.6341
1595878667,-0.1439,-0.9471,0.4642,3.1098,-0.6098,-7.1341
1595878667,-0.1536,-0.9465,0.4145,2.9878,-13.5976,-7.8659
1595878667,-0.1318,-0.9473,0.3396,3.3537,-32.0732,-9.3293
1595878667,-0.1354,-0.9409,0.3245,2.9878,-48.1707,-11.2195
1595878667,-0.0950,-0.9564,0.3326,2.2561,-58.4756,-10.5488
1595878667,-0.0643,-0.9636,0.3204,3.3537,-67.6829,-9.5122
1595878667,-0.0626,-0.9659,0.3169,8.1707,-69.8781,-8.9634
1595878667,-0.0157,-0.9816,0.3474,12.4390,-68.4756,-9.0854
1595878667,0.0306,-0.9749,0.3752,16.7683,-70.0610,-10.1829
1595878667,0.0201,-0.9807,0.3732,19.4512,-71.2805,-12.1951
1595878667,-0.0124,-0.9871,0.3567,19.3902,-70.1829,-14.2683
1595878667,-0.0676,-0.9791,0.3129,18.4146,-70.9146,-15.3049
1595878667,-0.1365,-0.9635,0.2338,14.8780,-76.4024,-15.9146
1595878668,-0.0993,-0.9979,0.1932,8.8415,-89.2073,-15.7927
1595878668,0.0087,-1.0200,0.2271,5.7927,-104.0854,-15.1220
1595878668,0.0683,-1.0042,0.2693,6.8902,-112.4390,-14.6951
1595878668,0.0857,-1.0044,0.2704,5.2439,-111.3415,-13.2927
1595878668,0.0804,-1.0115,0.2558,0.3659,-104.4512,-11.3415
1595878668,0.0695,-0.9982,0.2516,-2.5000,-97.3781,-9.1463
1595878668,0.0493,-0.9589,0.2255,-2.6220,-94.5732,-6.0366
1595878668,0.0041,-0.9225,0.1575,-6.4024,-93.5366,-2.4390
1595878668,0.0335,-0.9611,0.1149,-15.1829,-93.8415,1.2805
1595878668,0.1202,-0.9887,0.1425,-20.6707,-95.3049,3.2927
1595878668,0.1734,-0.9750,0.1771,-20.6098,-94.0854,6.0366
1595878668,0.1978,-0.9803,0.2072,-22.1951,-85.0000,10.7927
1595878668,0.1919,-0.9803,0.2237,-23.5976,-70.0610,16.1585
1595878668,0.1597,-0.9585,0.2253,-23.9024,-54.1463,20.4878
1595878668,0.1413,-0.9275,0.2015,-25.0610,-42.1341,24.8171
1595878668,0.1603,-0.9272,0.1634,-28.9024,-35.4268,28.5366
1595878668,0.1863,-0.9172,0.1412,-33.9024,-30.4268,31.7683
1595878668,0.1985,-0.9295,0.1541,-36.1585,-24.7561,35.5488
1595878668,0.1871,-0.9515,0.1804,-37.6220,-18.4146,39.6951
1595878668,0.1591,-0.9517,0.1821,-38.3537,-11.5244,44.6951
1595878668,0.1714,-0.9474,0.1724,-40.9756,-6.7683,48.7195
1595878668,0.2134,-0.9335,0.1729,-43.8415,-4.6341,51.0366
1595878668,0.2363,-0.9208,0.1748,-44.6951,-1.4634,53.2927
1595878668,0.2330,-0.9219,0.1761,-45.7927,4.7561,56.1585
1595878668,0.2354,-0.9188,0.1926,-46.5854,11.8902,59.0854
1595878668,0.2431,-0.9244,0.1989,-46.2805,18.5976,61.2195
1595878668,0.2477,-0.9283,0.2028,-46.4024,25.5488,62.9878
1595878668,0.2639,-0.9072,0.2106,-45.9146,32.2561,64.6951
1595878668,0.2675,-0.9089,0.2209,-45.1220,38.0488,65.9146
1595878668,0.2542,-0.9368,0.2303,-45.3659,42.5610,66.5854
1595878668,0.2513,-0.9391,0.2391,-44.1463,46.3415,67.5000
1595878668,0.2522,-0.9114,0.2427,-41.2195,49.1463,68.7195
1595878668,0.2632,-0.8982,0.2427,-39.3902,50.3049,69.2073
1595878668,0.2572,-0.8807,0.2444,-39.3902,49.4512,68.7195
1595878668,0.2526,-0.8784,0.2416,-40.1220,47.5000,67.5000
1595878668,0.2658,-0.8947,0.2348,-41.1585,44.9390,66.1585
1595878668,0.2778,-0.9033,0.2335,-41.8293,41.9512,64.6951
1595878668,0.2821,-0.9041,0.2324,-42.2561,39.8171,63.5976
1595878668,0.2587,-0.8885,0.2302,-42.6829,39.9390,63.4146
1595878668,0.2070,-0.8785,0.2285,-42.6829,41.7683,62.9268
1595878668,0.1552,-0.8831,0.2098,-42.6220,43.2927,62.2561
1595878668,0.1193,-0.8896,0.1836,-41.9512,42.6220,62.4390
1595878668,0.0936,-0.9029,0.1597,-40.4268,41.1585,62.2561
1595878668,0.0797,-0.9169,0.1166,-39.0854,42.1951,61.8902
1595878668,0.0738,-0.9291,0.0923,-38.4756,46.0366,60.6707
1595878668,0.0759,-0.9381,0.0943,-37.6829,50.9756,58.5366
1595878668,0.0895,-0.9601,0.0902,-35.2439,58.5976,56.0366
1595878668,0.1025,-0.9818,0.0732,-34.0244,68.7195,53.1707
1595878668,0.1129,-0.9664,0.0526,-34.9390,79.0854,49.0854
1595878668,0.1345,-0.9595,0.0305,-36.2195,89.1463,43.2927
1595878668,0.1578,-0.9950,0.0529,-39.5732,96.7073,36.3415
1595878668,0.1177,-1.0125,0.1055,-43.0488,100.6707,31.1585
1595878668,0.0428,-1.0135,0.1417,-41.9512,104.1463,27.0122
1595878668,-0.0095,-1.0396,0.1843,-38.6585,108.0488,22.3171
1595878668,-0.0454,-1.0576,0.2292,-38.1098,110.2439,17.1951
1595878668,-0.0352,-1.0527,0.2720,-36.9512,110.7317,11.1585
1595878668,0.0065,-1.0725,0.3419,-34.0244,111.5244,1.8293
1595878668,0.0161,-1.0702,0.3835,-31.5244,113.4146,-5.3049
1595878668,-0.0262,-1.0252,0.3908,-26.7683,118.5976,-10.7927
1595878668,-0.0639,-0.9843,0.3744,-20.0000,123.6585,-18.5366
1595878668,-0.0778,-0.9916,0.3619,-16.3415,124.1463,-25.5488
1595878668,-0.1096,-1.0073,0.3481,-16.2805,118.4146,-34.1463
1595878668,-0.1644,-0.9980,0.3292,-12.9268,108.8415,-43.4146
1595878668,-0.2229,-0.9807,0.3171,-7.4390,98.4756,-48.9634
1595878668,-0.2634,-0.9701,0.3057,-1.7073,87.9268,-52.1951
1595878668,-0.2746,-0.9496,0.3138,3.4146,76.7683,-56.0976
1595878668,-0.3025,-0.9012,0.3016,8.7805,64.6951,-59.6951
1595878668,-0.3069,-0.8886,0.2831,11.7683,53.6585,-63.4756
1595878668,-0.2529,-0.8893,0.2682,13.4756,40.5488,-67.6829
1595878668,-0.2278,-0.8730,0.2747,15.0000,24.2683,-69.4512
1595878668,-0.2225,-0.8378,0.2780,16.7073,7.8049,-70.0000
1595878668,-0.1940,-0.8226,0.2842,19.6341,-5.0000,-69.0244
1595878668,-0.1601,-0.8268,0.2976,21.1585,-13.8415,-67.2561
1595878668,-0.1464,-0.8363,0.2986,22.8659,-18.4756,-65.8537
1595878668,-0.1409,-0.8519,0.2895,26.2805,-17.6220,-65.6098
1595878668,-0.1308,-0.8539,0.2822,29.8780,-13.2927,-64.3902
1595878668,-0.1168,-0.8541,0.2646,32.9268,-6.4634,-63.5366
1595878668,-0.0884,-0.8583,0.2570,35.2439,0.9146,-63.5976
1595878668,-0.0612,-0.8586,0.2521,37.3780,7.3171,-63.4146
1595878668,-0.0430,-0.8598,0.2474,39.5122,14.6951,-62.8659
1595878668,-0.0341,-0.8758,0.2504,41.4634,23.6585,-62.0732
1595878668,-0.0429,-0.9103,0.2431,42.6829,32.6220,-61.2195
1595878668,-0.0408,-0.9433,0.2303,43.9024,39.9390,-60.6707
1595878668,-0.0478,-0.9615,0.2083,45.8537,45.4268,-60.3659
1595878668,-0.0712,-0.9755,0.1799,47.5610,50.6707,-60.5488
1595878668,-0.0789,-0.9818,0.1676,47.1951,53.7805,-60.0000
1595878668,-0.0717,-0.9633,0.1644,46.9512,51.8293,-58.0488
1595878668,-0.0792,-0.9458,0.1517,46.4024,46.7683,-57.2561
1595878669,-0.0853,-0.9453,0.1498,43.9024,40.7317,-55.3659
1595878669,-0.0642,-0.9443,0.1560,40.9146,34.6341,-51.2195
1595878669,-0.0448,-0.9339,0.1553,39.2683,29.1463,-47.8049
1595878669,-0.0325,-0.9283,0.1525,37.6220,24.5122,-45.4878
1595878669,-0.0012,-0.9222,0.1395,36.2195,20.8537,-42.6829
1595878669,0.0472,-0.9164,0.1403,35.0610,19.5122,-40.0610
1595878669,0.0663,-0.9030,0.1481,33.6585,19.8171,-38.2317
1595878669,0.0685,-0.8836,0.1367,33.1707,21.4024,-37.0122
1595878669,0.0750,-0.8737,0.1200,33.1098,23.7805,-34.9390
1595878669,0.0894,-0.8759,0.1005,32.5610,25.5488,-31.8293
1595878669,0.0986,-0.8928,0.1047,31.5244,26.9512,-30.0610
1595878669,0.1081,-0.9051,0.1140,30.8537,26.8293,-29.6341
1595878669,0.1057,-0.9133,0.1179,30.9756,27.0732,-28.2317
1595878669,0.1035,-0.9101,0.1207,31.5854,29.0854,-25.9146
1595878669,0.0906,-0.8928,0.1171,32.7439,32.3780,-25.3049
1595878669,0.0736,-0.8802,0.1116,32.4390,34.2683,-25.3659
1595878669,0.0717,-0.8819,0.1083,31.3415,32.7439,-24.5732
1595878669,0.0747,-0.8919,0.1108,29.7561,28.2317,-23.4146
1595878669,0.0765,-0.9131,0.1108,27.7439,22.4390,-22.2561
1595878669,0.0683,-0.9175,0.1099,25.4878,16.4024,-20.3659
1595878669,0.0703,-0.9129,0.1048,22.8049,9.5122,-19.0244
1595878669,0.0887,-0.9069,0.0958,19.6951,1.1585,-18.1707
1595878669,0.1164,-0.9080,0.1013,15.5488,-8.1098,-17.8659
1595878669,0.1472,-0.8954,0.1093,11.9512,-16.0976,-17.1951
1595878669,0.1689,-0.8865,0.1343,8.0488,-21.2195,-16.8293
1595878669,0.1880,-0.9028,0.1503,3.3537,-23.9634,-16.7073
1595878669,0.2070,-0.9423,0.1597,-1.0366,-23.7805,-16.1585
1595878669,0.2234,-1.0108,0.1692,-4.7561,-21.2805,-15.1220
1595878669,0.2266,-1.0718,0.1782,-7.9268,-18.1098,-13.7805
1595878669,0.2253,-1.1002,0.1880,-10.7317,-14.8780,-12.9268
1595878669,0.2175,-1.1041,0.2014,-13.2927,-12.8049,-12.1341
1595878669,0.2101,-1.1141,0.2156,-16.2805,-12.0122,-11.8293
1595878669,0.2090,-1.1234,0.2277,-19.1463,-12.5000,-11.1585
1595878669,0.2139,-1.1299,0.2360,-21.7683,-13.9024,-10.3049
1595878669,0.2313,-1.1394,0.2435,-24.2073,-15.9756,-9.4512
1595878669,0.2523,-1.1520,0.2503,-25.3659,-17.3780,-9.2683
1595878669,0.2669,-1.1669,0.2493,-25.8537,-16.9512,-9.5732
1595878669,0.2842,-1.1708,0.2542,-26.6463,-14.9390,-10.6098
1595878669,0.2936,-1.1492,0.2672,-26.2195,-12.3171,-12.7439
1595878669,0.3053,-1.1081,0.2814,-24.8171,-9.0244,-16.0366
1595878669,0.3196,-1.0677,0.2914,-22.1341,-4.2683,-19.6341
1595878669,0.3098,-1.0332,0.2928,-18.2317,3.4756,-23.4756
1595878669,0.2699,-1.0107,0.2902,-13.8415,13.9634,-27.8659
1595878669,0.2468,-0.9993,0.2812,-9.8171,23.5366,-31.9512
1595878669,0.2408,-0.9851,0.2714,-4.7561,30.9146,-35.7317
1595878669,0.2315,-0.9724,0.2656,0.0610,36.0976,-39.6341
1595878669,0.2217,-0.9700,0.2540,3.9024,39.4512,-42.8049
1595878669,0.2204,-0.9734,0.2533,7.1341,41.0366,-45.2439
1595878669,0.2219,-0.9795,0.2589,10.4878,40.1829,-47.3171
1595878669,0.2285,-0.9823,0.2693,14.8780,38.2317,-48.9024
1595878669,0.2495,-0.9839,0.2755,20.1220,36.6463,-49.7561
1595878669,0.2803,-0.9893,0.2809,25.4268,36.7683,-50.7927
1595878669,0.3037,-0.9905,0.2794,31.0366,38.5366,-52.8659
1595878669,0.3163,-0.9822,0.2664,36.0976,40.6707,-54.8171
1595878669,0.3297,-0.9571,0.2451,40.2439,42.4390,-57.0732
1595878669,0.3331,-0.9200,0.2218,44.3293,44.0854,-59.4512
1595878669,0.3476,-0.8864,0.1963,46.5854,44.8171,-61.7073
1595878669,0.3629,-0.8457,0.1896,47.3171,42.5610,-64.1463
1595878669,0.3857,-0.8058,0.1697,46.7073,35.4268,-67.6220
1595878669,0.4274,-0.8072,0.1702,42.8049,24.2073,-71.2805
1595878669,0.4779,-0.8121,0.1883,36.7073,12.0732,-74.4512
1595878669,0.5333,-0.7964,0.1985,34.6341,4.7561,-77.4390
1595878669,0.5519,-0.7957,0.2129,33.3537,4.0244,-80.9146
1595878669,0.5491,-0.7947,0.2178,30.6098,7.5610,-84.8171
1595878669,0.5376,-0.7811,0.2115,28.2927,12.5000,-87.8049
1595878669,0.5419,-0.7875,0.2127,24.1463,14.4512,-90.1220
1595878669,0.5640,-0.7869,0.2102,19.7561,10.7317,-92.2561
1595878669,0.5894,-0.7769,0.1997,16.8902,4.6341,-93.7195
1595878669,0.6065,-0.7615,0.1991,14.4512,-1.2195,-93.5976
1595878669,0.6152,-0.7495,0.1940,11.6463,-6.5244,-92.4390
1595878669,0.6298,-0.7455,0.1957,8.4756,-10.3049,-92.1951
1595878669,0.6492,-0.7456,0.2201,5.4878,-13.4756,-92.5000
1595878669,0.6575,-0.7222,0.2229,4.0244,-14.5122,-92.5000
1595878669,0.6541,-0.6893,0.1964,3.4756,-13.8415,-92.3781
1595878670,0.6489,-0.6853,0.1636,0.5488,-14.8780,-93.5366
1595878670,0.6556,-0.6827,0.1509,-4.0244,-19.5732,-95.1829
1595878670,0.6857,-0.6697,0.1483,-6.2805,-25.4268,-95.4878
1595878670,0.7098,-0.6690,0.1622,-8.7805,-29.6341,-94.5122
1595878670,0.7199,-0.6701,0.1780,-11.3415,-31.0366,-94.1463
1595878670,0.7247,-0.6680,0.2022,-12.8049,-30.6707,-93.9024
1595878670,0.7303,-0.6691,0.2102,-13.8415,-30.4878,-93.7195
1595878670,0.7271,-0.6718,0.2203,-15.0610,-30.7927,-93.5976
1595878670,0.7275,-0.6691,0.2350,-16.0366,-32.2561,-93.2317
1595878670,0.7581,-0.6592,0.2164,-15.7317,-34.3293,-92.1951
1595878670,0.7642,-0.6460,0.2002,-16.7073,-34.7561,-90.9756
1595878670,0.7433,-0.6368,0.1742,-18.4756,-34.3293,-89.8781
1595878670,0.7263,-0.6216,0.1711,-19.2683,-33.8415,-88.6585
1595878670,0.7288,-0.6127,0.1860,-18.8415,-34.7561,-86.4024
1595878670,0.7347,-0.6126,0.1978,-19.2683,-36.4024,-84.2683
1595878670,0.7319,-0.6227,0.2051,-19.3293,-36.2805,-79.7561
1595878670,0.7444,-0.6118,0.1672,-17.4390,-18.9024,-67.1951
1595878670,0.6688,-0.6147,0.1944,-19.9390,-12.3171,-61.4024
1595878670,0.6531,-0.6240,0.2138,-19.8780,-13.1707,-58.2317
1595878671,0.6506,-0.6315,0.1449,-17.7439,-22.4390,-44.6341
1595878671,0.6557,-0.6259,0.1215,-15.4878,-24.3293,-37.3171
1595878671,0.6158,-0.6941,0.0960,-12.5000,-24.6951,2.1951
1595878671,0.5546,-0.6989,0.1432,-5.7927,54.6951,47.4390
1595878671,0.5565,-0.7098,0.1305,-3.5366,56.5244,49.2073
1595878671,0.5609,-0.7197,0.1146,-1.3415,60.4878,51.7073
1595878671,0.5752,-0.7700,0.1479,2.7439,77.3781,53.8415
1595878671,0.5750,-0.8206,0.1255,9.1463,95.3049,55.4268
1595878671,0.4388,-0.7725,0.1302,7.3171,103.1707,55.3049
1595878671,0.4073,-0.7599,0.1407,5.1220,94.9390,55.7927
1595878671,0.3572,-0.7601,0.1476,1.2195,82.9268,54.7561
1595878671,0.3552,-0.7834,0.1658,-2.9878,64.7561,51.5854
1595878671,0.3932,-0.8019,0.1923,-6.3415,41.8902,48.1707
1595878671,0.4286,-0.8133,0.2286,-7.5610,15.6707,45.0610
1595878671,0.3861,-0.8151,0.2562,-4.8780,31.3415,44.3902
1595878671,0.3843,-0.9727,0.2795,-3.1098,89.1463,36.3415
1595878671,0.3557,-0.9756,0.2645,-1.7683,98.9634,34.6951
1595878671,0.3214,-0.9650,0.2408,-0.5488,105.2439,32.1951
1595878671,0.2823,-0.9927,0.3665,-5.5488,77.0122,24.8171
1595878671,0.4328,-0.8740,0.4828,8.5976,40.9756,-33.8415
1595878671,0.4887,-0.7701,0.6459,-5.5488,15.7927,-10.8537
1595878671,0.3987,-0.7647,0.4553,-7.2561,48.1707,-15.2439
1595878671,0.3090,-0.7247,0.4444,-15.3659,-102.3781,-5.4268
1595878671,0.4758,-0.7057,0.4236,-21.3415,-146.8902,-7.5610
1595878671,0.6862,-0.7969,0.4675,-7.6829,11.0366,-2.1341
1595878671,0.4445,-0.7792,0.4295,10.9146,-26.9512,0.8537
1595878671,0.3947,-0.8024,0.4459,11.4634,-23.4756,-0.1829
1595878671,0.4073,-0.8292,0.4164,20.1220,-28.5366,-1.9512
1595878671,0.3821,-0.8519,0.5084,28.1098,-76.2805,-7.5610
1595878671,0.3578,-0.7299,0.2688,33.7195,-123.7805,-12.3171
1595878672,0.6107,-0.6371,0.3743,23.9634,-182.2561,-5.9756
1595878672,0.9543,-0.8557,-0.0045,-7.8659,-161.7683,-7.0122
1595878672,0.9077,-0.7784,0.0943,-2.1341,-155.9146,-4.0244
1595878672,0.6282,-0.6721,0.1714,14.3293,-72.4390,10.8537
1595878672,0.4683,-0.6379,0.1035,13.9634,-35.6707,11.0976
1595878672,0.7765,-0.8096,0.0096,-23.1098,-229.5732,-6.7073
1595878672,0.9797,-0.8042,0.0271,-23.1098,-260.7927,-10.7317
1595878672,0.7933,-0.7291,-0.1392,-21.8902,-255.6707,-17.3171
1595878672,0.6255,-0.7381,-0.2077,-32.8659,-235.3659,-16.4024
1595878672,0.7043,-0.6924,-0.2764,-31.7073,-240.1220,-10.8537
1595878672,0.6976,-0.6659,-0.2577,-33.0488,-239.9390,-9.3902
1595878672,0.7355,-0.6675,-0.2819,-33.3537,-242.3171,-7.9878
1595878672,0.6627,-0.6913,-0.3379,-13.9634,-145.4878,-8.8415
1595878672,0.6774,-0.6852,-0.3436,-4.9390,-102.6220,-7.8659
1595878672,0.8392,-0.7166,-0.3836,-7.8659,-61.4634,-11.4024
1595878672,0.6804,-0.6645,-0.4626,-4.8171,-44.0854,-11.3415
1595878672,0.5368,-0.7180,-0.4803,-18.7805,-27.5610,-8.0488
1595878672,0.6707,-0.7259,-0.4720,-19.0244,-42.8049,-4.0854
1595878672,0.7499,-0.7306,-0.4287,-21.0366,-55.9146,-2.5000
1595878672,0.7698,-0.7007,-0.4359,-23.0488,-59.8171,-1.7073
1595878672,0.7166,-0.6849,-0.4205,-25.8537,-38.3537,3.4756
1595878672,0.4777,-0.6457,-0.4575,-22.8049,-8.9634,6.7073
1595878672,0.4421,-0.6287,-0.4193,-20.3659,-21.5244,0.3659
1595878672,0.4758,-0.6239,-0.4434,-19.2073,-35.3659,-0.2439
1595878672,0.5746,-0.6200,-0.5017,-17.0122,-44.3293,-0.3049
1595878672,0.7104,-0.6276,-0.5672,-19.8171,-35.4268,3.9634
1595878672,0.7676,-0.6292,-0.5348,-20.7317,-22.6829,5.6707
1595878672,0.7545,-0.6085,-0.4890,-17.3780,-5.7317,4.4512
1595878672,0.5209,-0.5762,-0.5164,-8.0488,34.4512,4.8780
1595878672,0.3888,-0.5211,-0.5485,-1.8293,50.3659,4.0244
1595878672,0.4427,-0.5450,-0.5084,-4.2073,46.8293,4.3293
1595878672,0.4948,-0.5469,-0.4732,-9.8171,30.3049,3.2317
1595878672,0.4026,-0.5473,-0.5245,-11.5854,-2.3171,1.0976
1595878672,0.4594,-0.5517,-0.5422,-13.2927,-25.4268,2.2561
1595878672,0.6359,-0.5717,-0.5134,-14.8171,-48.9024,2.4390
1595878672,0.7671,-0.6045,-0.5156,-15.6098,-62.0122,-0.2439
1595878672,0.7393,-0.6395,-0.5412,-15.1829,-58.7805,-2.5610
1595878672,0.5244,-0.5922,-0.5806,-6.7683,-46.2805,-8.2927
1595878672,0.5110,-0.5494,-0.6029,-3.5366,-54.2073,-11.2805
1595878672,0.5297,-0.5463,-0.6846,-6.3415,-78.1098,-12.0732
1595878672,0.5594,-0.5422,-0.6794,-8.0488,-82.7439,-10.9146
1595878672,0.5977,-0.5433,-0.6776,-9.5732,-84.9390,-9.5732
1595878672,0.6242,-0.5598,-0.6853,-11.2195,-54.3293,-2.7439
1595878672,0.5710,-0.5352,-0.6517,-10.4878,-33.6585,-2.1951
1595878672,0.4998,-0.5175,-0.6715,-8.4756,-19.3293,-1.2195
1595878672,0.4690,-0.5203,-0.7107,-8.4756,-8.9634,0.4878
1595878672,0.5103,-0.5422,-0.7065,-17.0732,-17.9878,3.1098
1595878672,0.5024,-0.5328,-0.6988,-18.9634,-20.9146,3.1098
1595878672,0.5345,-0.5685,-0.6841,-22.1951,-19.0854,2.8049
1595878672,0.4769,-0.5659,-0.6483,-20.6707,-12.3171,3.1098
1595878672,0.4413,-0.5704,-0.6415,-18.7805,-12.2561,3.9024
1595878672,0.4640,-0.5745,-0.6431,-18.1098,-19.6341,3.2317
1595878672,0.4749,-0.5835,-0.6499,-17.0122,-24.0244,2.4390
1595878672,0.4868,-0.5842,-0.6652,-15.8537,-25.9146,1.8293
1595878672,0.4996,-0.5879,-0.6804,-14.4512,-26.0976,1.3415
1595878672,0.4307,-0.5929,-0.6342,-9.0854,-8.9024,2.0732
1595878672,0.4012,-0.6029,-0.6343,-8.5366,-5.1829,4.0244
1595878672,0.4374,-0.6838,-0.6531,-11.0366,-42.9878,-0.9146
1595878672,0.4682,-0.7106,-0.6802,-11.3415,-42.1951,1.9512
1595878672,0.4759,-0.7053,-0.6890,-11.0366,-40.1829,1.8902
1595878672,0.4763,-0.6923,-0.6937,-11.0976,-35.1220,1.7683
1595878673,0.4589,-0.6797,-0.6906,-10.7927,-27.7439,1.4634
1595878673,0.4166,-0.6665,-0.6826,-9.5122,-18.6585,0.4268
1595878673,0.4000,-0.6658,-0.6727,-8.4756,-10.6098,-0.2439
1595878673,0.3818,-0.6661,-0.6614,-7.7439,-1.5244,-0.7927
1595878673,0.3758,-0.6607,-0.6732,-7.3780,1.5244,-0.6707
1595878673,0.3694,-0.6442,-0.7062,-6.0976,3.9634,-0.7317
1595878673,0.3451,-0.6280,-0.7204,-5.1829,5.0610,0.2439
1595878673,0.3464,-0.6256,-0.7083,-5.4268,3.4756,1.6463
1595878673,0.3438,-0.6288,-0.6846,-4.9390,2.5610,2.0732
1595878673,0.3268,-0.6257,-0.6553,-3.6585,2.5610,3.0488
1595878673,0.3350,-0.6224,-0.6424,-2.2561,2.0732,4.2073
1595878673,0.3801,-0.6173,-0.6553,-1.0976,0.6707,4.4512
1595878673,0.4142,-0.6123,-0.6990,1.6463,1.4634,2.9268
1595878673,0.4075,-0.6159,-0.7151,2.8659,5.2439,2.3171
1595878673,0.3922,-0.6080,-0.7335,3.3537,8.6585,2.4390
1595878673,0.3853,-0.6047,-0.7366,2.9878,10.8537,2.6829
1595878673,0.3738,-0.6206,-0.7085,-0.4268,7.5000,3.4146
1595878673,0.3616,-0.5950,-0.7225,-0.2439,3.7195,3.9634
1595878673,0.3831,-0.5964,-0.7457,-0.1829,1.9512,3.5976
1595878673,0.4265,-0.5885,-0.7668,-2.8659,2.5000,2.2561
1595878673,0.4189,-0.5720,-0.7733,-3.5366,12.6829,2.9268
1595878673,0.3079,-0.5800,-0.6931,-5.4268,34.6951,6.4634
1595878674,0.3514,-0.5949,-0.6785,-7.1341,32.9878,8.3537
1595878674,0.4303,-0.6632,-0.7845,-9.7561,24.4512,7.3780
1595878674,0.3887,-0.6560,-0.7555,-9.5732,31.9512,7.4390
1595878674,0.3483,-0.6292,-0.7199,-9.5732,36.4024,7.9878
1595878674,0.3159,-0.5897,-0.7078,-10.1220,35.4878,8.2927
1595878674,0.2856,-0.5498,-0.7365,-10.9146,29.5732,7.9268
1595878674,0.2913,-0.5340,-0.7706,-13.1707,18.2317,8.1707
1595878674,0.3884,-0.5133,-0.7874,-20.8537,-20.3659,8.5366
1595878674,0.4169,-0.4979,-0.8197,-21.1585,-25.5488,9.6341
1595878674,0.4321,-0.4984,-0.8572,-21.2195,-25.7927,11.3415
1595878675,0.3216,-0.5055,-0.6974,-21.9512,-16.2195,17.2561
1595878675,0.3044,-0.5009,-0.6373,-22.3780,-13.1098,21.8293
1595878675,0.3066,-0.4913,-0.6207,-22.7439,-15.3049,25.9146
1595878675,0.3741,-0.5512,-0.6396,-23.2927,-27.9878,23.0488
1595878675,0.3878,-0.5643,-0.6741,-22.5610,-32.0122,22.8049
1595878675,0.3345,-0.5717,-0.6886,-21.7683,-31.0366,23.1098
1595878675,0.4223,-0.6401,-0.5613,-6.7683,-76.6463,14.2073
1595878675,0.4524,-0.6151,-0.6921,12.6220,-61.4024,3.6585
1595878675,0.3795,-0.6232,-0.7368,22.6220,-40.7927,-2.3171
1595878675,0.3143,-0.6209,-0.6970,15.4268,-66.3415,8.3537
1595878675,0.1863,-0.5855,-0.8351,1.8902,41.9512,5.9146
1595878675,0.2903,-0.5833,-0.6663,-11.2805,4.4512,3.9634
1595878675,0.3273,-0.6028,-0.7612,-4.6951,-11.3415,-9.6341
1595878675,0.4118,-0.6985,-0.6858,-3.9634,5.6098,-10.5488
1595878675,0.3868,-0.6722,-0.6813,-0.1829,23.9024,-12.4390
1595878675,0.3353,-0.6943,-0.6862,2.8659,36.2195,-1.4634
1595878675,0.4702,-0.6360,-0.7064,25.7927,49.2073,11.6463
1595878675,0.4993,-0.6446,-0.7015,25.0610,47.5000,11.5244
1595878675,0.5024,-0.6505,-0.6724,25.4878,48.3537,11.2805
1595878675,0.5181,-0.6526,-0.6609,25.3659,49.1463,11.5854
1595878675,0.4948,-0.6054,-0.6096,23.4146,65.9146,12.9268
1595878675,0.4808,-0.5972,-0.6022,22.5000,67.7439,13.5366
1595878675,0.4984,-0.5733,-0.5549,20.3049,64.8781,16.7073
1595878675,0.4956,-0.5926,-0.5582,18.3537,68.5976,19.5122
1595878675,0.5292,-0.5926,-0.5697,16.5854,61.0976,20.4268
1595878675,0.5161,-0.5997,-0.5717,14.6341,57.0732,20.3659
1595878675,0.5146,-0.5967,-0.5691,12.0732,52.0732,21.4024
1595878675,0.5333,-0.5837,-0.5618,9.4512,43.5366,23.1098
1595878675,0.5443,-0.5846,-0.5638,8.2317,42.6829,23.8415
1595878675,0.5576,-0.5906,-0.5630,7.4390,42.5000,24.3902
1595878675,0.5684,-0.5956,-0.5649,6.8902,43.1098,24.9390
1595878675,0.5673,-0.6034,-0.5756,6.4024,43.9024,25.4268
1595878675,0.5678,-0.6069,-0.5731,5.4268,42.5610,25.1220
1595878675,0.5746,-0.6100,-0.5656,4.6951,39.2683,24.5122
1595878675,0.5820,-0.6158,-0.5597,3.9024,36.0976,23.8415
1595878675,0.5873,-0.6209,-0.5557,2.9268,33.2927,23.1707
1595878675,0.5947,-0.6243,-0.5536,2.9268,31.2805,22.0732
1595878675,0.6072,-0.6373,-0.5579,3.1707,30.4878,20.8537
1595878675,0.6255,-0.6476,-0.5504,2.8049,29.3293,19.2683
1595878675,0.6349,-0.6459,-0.5461,3.1707,29.0244,16.8902
1595878675,0.6264,-0.6400,-0.5484,4.4512,31.8902,14.5732
1595878675,0.6010,-0.6449,-0.5529,5.3659,37.4390,12.5000
1595878675,0.5787,-0.6406,-0.5599,4.8780,42.0732,10.3659
1595878675,0.5721,-0.6269,-0.5568,5.2439,42.8659,7.8659
1595878675,0.5710,-0.6189,-0.5442,5.4878,41.2195,5.3049
1595878675,0.5673,-0.6184,-0.5319,4.6951,38.9634,3.1707
1595878675,0.5634,-0.6249,-0.5264,4.0244,36.6463,1.1585
1595878675,0.5549,-0.6265,-0.5295,3.3537,33.4146,-0.9756
1595878675,0.5465,-0.6248,-0.5371,2.8659,28.9634,-2.9268
1595878675,0.5522,-0.6299,-0.5367,2.3780,23.5976,-4.6341
1595878675,0.5713,-0.6371,-0.5302,1.5244,14.8171,-6.6463
1595878675,0.5704,-0.6486,-0.5205,1.5854,13.5976,-7.5610
1595878675,0.5767,-0.6581,-0.5088,2.0122,13.5976,-8.5366
1595878675,0.5925,-0.6748,-0.4904,3.7195,15.8537,-10.7317
1595878675,0.5884,-0.6885,-0.4839,4.5732,18.4146,-11.7073
1595878675,0.5918,-0.6994,-0.4749,5.8537,21.3415,-12.6220
1595878675,0.6147,-0.7285,-0.4669,8.8415,26.8902,-14.0244
1595878675,0.6192,-0.7434,-0.4689,10.4878,30.2439,-14.9390
1595878675,0.6230,-0.7546,-0.4642,12.1341,33.3537,-15.1829
1595878676,0.6257,-0.7651,-0.4615,14.4512,36.8902,-15.2439
1595878676,0.6265,-0.7748,-0.4580,16.8902,41.5244,-15.3659
1595878676,0.6260,-0.7817,-0.4474,19.3902,45.9146,-15.3049
1595878676,0.6248,-0.7928,-0.4266,22.3171,50.1829,-15.6098
1595878676,0.5951,-0.8099,-0.3939,32.6220,69.6951,-17.6829
1595878676,0.5748,-0.7964,-0.4058,38.1707,75.3049,-20.1829
1595878676,0.5523,-0.7927,-0.4057,41.1585,76.4634,-22.0122
1595878676,0.5076,-0.8008,-0.3772,50.1220,73.9024,-22.0732
1595878676,0.5187,-0.8177,-0.3417,55.4268,71.4024,-18.9024
1595878676,0.4823,-0.8048,-0.3060,71.4024,85.0000,-6.9512
1595878676,0.4352,-0.8079,-0.2987,77.8659,85.0610,-1.0976
1595878676,0.3787,-0.8041,-0.2946,85.7317,64.1463,14.3293
1595878676,0.4491,-0.8438,-0.1955,93.1707,30.0610,31.1585
1595878676,0.4362,-0.8699,-0.2234,91.4024,20.5488,35.4878
1595878676,0.4142,-0.8711,-0.2441,90.5488,12.8659,37.2561
1595878676,0.4055,-0.8982,-0.2267,88.2927,-24.7561,37.7439
1595878676,0.4169,-0.9108,-0.2106,88.6585,-52.0122,42.3780
1595878676,0.4984,-0.9311,-0.2166,90.0610,-72.8049,48.1707
1595878676,0.4941,-0.9376,-0.2313,87.4390,-84.3293,53.9024
1595878676,0.5141,-0.9995,-0.1514,90.8537,-93.1098,80.6707
1595878676,0.4957,-0.9705,-0.1241,83.8415,-114.4512,88.3537
1595878676,0.5718,-0.9217,-0.1409,77.3171,-142.5610,92.4390
1595878676,0.5506,-0.8395,-0.0645,72.6829,-150.6098,94.6951
1595878676,0.5607,-0.8218,-0.0439,70.0610,-152.1951,96.0976
1595878676,0.5455,-0.7551,-0.0518,64.4512,-156.5244,88.7805
1595878676,0.5386,-0.7666,-0.0573,59.4512,-153.9024,89.5122
1595878676,0.5726,-0.7820,-0.0300,55.7317,-150.8537,90.7317
1595878676,0.5890,-0.7667,0.0035,54.2073,-148.7195,91.7683
1595878676,0.5464,-0.7633,0.0027,52.3171,-145.4268,93.0488
1595878676,0.5074,-0.7930,-0.0010,47.5000,-145.8537,95.0000
1595878676,0.4965,-0.7950,0.0093,43.5366,-154.1463,98.4146
1595878676,0.5061,-0.7897,0.0092,43.2317,-163.9634,101.2805
1595878676,0.5161,-0.8044,0.0080,42.6829,-170.9756,102.8659
1595878676,0.5374,-0.8057,0.0098,42.3171,-175.7927,103.1707
1595878676,0.5629,-0.8009,0.0060,43.9634,-175.7927,103.2927
1595878676,0.5598,-0.8043,0.0143,45.5488,-169.6951,102.5000
1595878676,0.5435,-0.8110,0.0149,46.8902,-159.2073,101.0976
1595878676,0.5257,-0.8179,0.0096,50.0610,-146.7073,100.1829
1595878676,0.5090,-0.8167,0.0107,53.4146,-134.1463,98.9634
1595878676,0.4864,-0.8262,0.0034,56.3415,-121.9512,98.7195
1595878676,0.4717,-0.8409,-0.0220,57.8049,-110.4878,98.5366
1595878676,0.4528,-0.8467,-0.0356,59.1463,-100.0610,97.8049
1595878676,0.4192,-0.8529,-0.0471,59.3902,-91.2195,97.6829
1595878676,0.3895,-0.8809,-0.0533,58.6585,-84.5732,98.6585
1595878676,0.3759,-0.9052,-0.0286,58.0488,-80.9146,99.5732
1595878676,0.3641,-0.8854,-0.0001,60.9146,-79.8781,100.6707
1595878676,0.3286,-0.8951,0.0110,61.8902,-77.6829,102.0122
1595878676,0.2937,-0.9330,-0.0109,57.5610,-76.4634,102.0122
1595878676,0.2761,-0.9582,-0.0200,52.3171,-80.6098,99.8171
1595878676,0.2936,-0.9565,-0.0302,49.2073,-89.2683,97.4390
1595878676,0.3060,-0.9564,-0.0436,46.5244,-97.3171,94.3902
1595878676,0.3063,-0.9819,-0.0441,42.1951,-100.5488,90.0610
1595878676,0.2745,-0.9940,-0.0603,37.3780,-100.2439,87.0732
1595878676,0.2374,-0.9778,-0.0685,32.9268,-100.2439,83.2927
1595878676,0.2171,-0.9938,-0.0647,28.1707,-101.7683,79.3293
1595878676,0.2111,-1.0026,-0.0321,23.2927,-103.8415,75.8537
1595878676,0.2083,-0.9894,0.0245,19.7561,-107.5610,72.8049
1595878676,0.2062,-0.9749,0.0786,16.8293,-113.3537,69.2683
1595878676,0.2078,-0.9620,0.0864,13.9024,-119.6951,64.6951
1595878676,0.2090,-0.9681,0.0826,9.5122,-125.4268,59.5732
1595878676,0.2100,-0.9735,0.0641,3.9634,-131.4024,54.6951
1595878676,0.1899,-0.9744,0.0451,1.0976,-133.6585,50.4268
1595878676,0.1597,-0.9802,0.0245,-0.1220,-131.2195,47.5610
1595878676,0.1370,-0.9871,0.0089,-1.7073,-128.0488,45.1220
1595878676,0.1354,-0.9993,0.0203,-3.7195,-125.8537,41.8902
1595878676,0.1478,-1.0091,0.0415,-5.6707,-124.9390,39.3293
1595878676,0.1598,-1.0099,0.0750,-6.6463,-124.9390,37.5000
1595878676,0.1534,-0.9931,0.1168,-6.8902,-125.4878,36.2805
1595878676,0.1353,-0.9838,0.1468,-6.8293,-124.8781,35.6707
1595878676,0.1169,-0.9691,0.1730,-6.6463,-123.8415,34.8171
1595878676,0.0972,-0.9440,0.1921,-5.7317,-123.5976,32.7439
1595878676,0.0800,-0.9269,0.2003,-5.3049,-123.2927,30.7317
1595878676,0.0644,-0.9276,0.1856,-5.8537,-122.8659,29.2073
1595878676,0.0721,-0.9260,0.1767,-7.0122,-123.6585,27.8049
1595878677,0.0905,-0.9215,0.1757,-7.0732,-127.3171,26.2195
1595878677,0.1105,-0.9129,0.1776,-6.7073,-131.7073,25.2439
1595878677,0.1319,-0.9026,0.1935,-6.0976,-134.2073,25.9146
1595878677,0.1378,-0.8707,0.2482,-3.8415,-128.9024,26.2805
1595878677,0.1537,-0.8856,0.2463,-4.0854,-124.6951,25.6098
1595878677,0.1620,-0.9088,0.2443,-4.2073,-119.8781,24.9390
1595878677,0.1765,-0.9027,0.2320,-3.7195,-114.7561,24.3293
1595878677,0.1959,-0.8799,0.2181,-3.4756,-109.8171,24.1463
1595878677,0.1960,-0.8945,0.1974,-5.3049,-100.7927,22.6220
1595878677,0.1942,-0.9306,0.1990,-6.8293,-96.1585,23.1098
1595878677,0.2003,-1.0571,0.2166,-7.8049,-87.1951,25.9146
1595878677,0.2135,-1.1218,0.2401,-8.2317,-83.0488,28.6585
1595878677,0.2354,-1.1795,0.2637,-9.3902,-80.9146,32.5610
1595878677,0.2594,-1.2252,0.2852,-9.5122,-79.3293,36.5244
1595878677,0.2756,-1.2397,0.2984,-8.4146,-76.1585,40.2439
1595878677,0.2925,-1.1905,0.2550,-5.0610,-67.6829,45.3659
1595878677,0.3209,-1.1735,0.2076,-3.5366,-63.5366,46.4634
1595878677,0.3436,-1.1741,0.1703,-4.9390,-59.3902,46.9512
1595878677,0.3326,-1.0929,0.1639,-1.0976,-46.3415,48.2927
1595878677,0.2847,-1.0058,0.1879,-0.8537,-36.4634,44.8171
1595878677,0.2900,-0.9800,0.2014,-1.7683,-35.1220,42.6829
1595878677,0.3118,-0.7751,0.1814,4.5122,-10.7927,10.1220
1595878677,0.0425,-1.1257,0.2278,-2.7439,17.3171,-30.9756
1595878677,0.0451,-1.3809,0.2061,-0.3049,22.5000,-22.3780
1595878677,-0.0087,-1.1126,0.2513,0.9756,17.0732,1.0976
1595878677,0.0732,-0.9646,0.2908,0.5488,0.9756,2.2561
1595878677,0.0678,-0.8807,0.4191,-10.7927,15.5488,1.6463
1595878677,0.0560,-0.8940,0.3799,-6.7073,46.2805,-4.6951
1595878677,0.0674,-0.8971,0.3563,-3.3537,60.4268,-6.6463
1595878677,0.0675,-0.9017,0.3417,0.6098,73.1098,-6.5244
1595878677,0.1555,-0.8714,0.2538,15.7317,39.6341,8.0488
1595878677,0.2837,-0.7942,0.2695,15.1220,33.1098,4.6341
1595878677,0.3287,-0.7937,0.2751,10.7317,46.0976,-0.3659
1595878677,0.3266,-0.8001,0.2645,3.7195,53.8415,-0.9756
1595878677,0.2870,-0.7916,0.2459,-2.1341,59.9390,-1.7073
1595878677,0.2399,-0.8126,0.1908,4.8171,64.7561,-10.2439
1595878677,0.2482,-0.7948,0.1924,6.8902,63.3537,-14.1463
1595878677,0.2336,-0.7937,0.2391,3.7805,69.6341,-16.7073
1595878677,0.2322,-0.7838,0.2606,2.1341,71.7073,-18.3537
1595878677,0.2349,-0.7693,0.2639,1.5244,70.8537,-21.0366
1595878678,0.3256,-0.7676,0.2636,-2.9878,57.9878,-26.7073
1595878678,0.3254,-0.7700,0.2507,-4.3902,52.7439,-29.3902
1595878678,0.2823,-0.7828,0.2297,-5.0000,53.5366,-30.9146
1595878678,0.2493,-0.7842,0.2114,-5.1829,56.5244,-31.2805
1595878678,0.2391,-0.7677,0.2122,-5.3049,57.5000,-30.9756
1595878678,0.2574,-0.7642,0.2246,-6.0976,57.6220,-30.8537
1595878678,0.2910,-0.7856,0.2344,-7.9878,58.2317,-32.2561
1595878678,0.3165,-0.7869,0.2425,-10.1829,60.1220,-35.0610
1595878678,0.3288,-0.7954,0.2621,-11.5244,62.9268,-37.8659
1595878678,0.3277,-0.8226,0.2562,-12.9878,66.7683,-39.3293
1595878678,0.3201,-0.8381,0.2430,-13.6585,70.1829,-39.6341
1595878678,0.3073,-0.8311,0.2369,-12.2561,71.5854,-41.7073
1595878678,0.3060,-0.8573,0.2650,-11.0976,72.9268,-45.9756
1595878678,0.2989,-0.9041,0.2502,-9.6951,74.0244,-48.0488
1595878678,0.2985,-0.9281,0.1978,-10.0000,71.8293,-48.0488
1595878678,0.3003,-0.9152,0.1592,-10.4878,68.7195,-49.6341
1595878678,0.3098,-0.9011,0.1497,-10.7927,69.3902,-54.6951
1595878678,0.3051,-0.8976,0.1418,-11.1585,72.9268,-57.5000
1595878678,0.2857,-0.9080,0.1163,-10.6707,77.0122,-58.1707
1595878678,0.2592,-0.9524,0.1191,-9.3902,81.4024,-60.3659
1595878678,0.2305,-1.0175,0.1326,-10.0610,84.8781,-60.9146
1595878678,0.2117,-1.0847,0.1251,-10.9146,86.4634,-59.3293
1595878678,0.4213,-1.1705,0.0737,-1.1585,41.0976,-51.8293
1595878678,0.4260,-1.1769,0.0329,-0.6098,43.9024,-51.5244
1595878678,0.3719,-1.1844,-0.0228,-1.7073,51.9512,-52.2561
1595878678,0.3326,-1.1378,-0.0479,-0.6707,60.4878,-55.4878
1595878678,0.2996,-1.0652,-0.0652,2.7439,67.7439,-58.7195
1595878678,0.2693,-1.0124,-0.0560,5.1220,75.5488,-62.1951
1595878678,0.2552,-0.9808,-0.0458,7.2561,83.2317,-65.3049
1595878678,0.2505,-0.9493,-0.0295,9.4512,88.6585,-68.5976
1595878678,0.2759,-0.9250,-0.0070,11.6463,91.0366,-70.7927
1595878678,0.2977,-0.9086,-0.0024,13.9634,93.9634,-72.0732
1595878678,0.3016,-0.8878,-0.0031,16.2195,99.0244,-74.7561
1595878678,0.2919,-0.8751,-0.0034,19.3293,106.8902,-76.4024
1595878678,0.2344,-0.8846,-0.0233,21.0976,116.8902,-77.6220
1595878678,0.1890,-0.8838,-0.0583,20.8537,125.0000,-78.7805
1595878678,0.1524,-0.8724,-0.0983,21.8293,128.4146,-78.7195
1595878678,0.0977,-0.8602,-0.1151,20.7927,130.0610,-78.5366
1595878678,0.0784,-0.8350,-0.1176,20.9756,126.5854,-76.8293
1595878678,0.0834,-0.8415,-0.0941,20.2439,117.6220,-72.5000
1595878678,0.0829,-0.8372,-0.0503,20.1220,108.4146,-67.6220
1595878678,0.0850,-0.8480,0.0332,20.8537,103.4146,-62.9878
1595878678,0.1180,-0.8800,0.1227,19.5122,101.0976,-57.0732
1595878678,0.1655,-0.9099,0.1502,19.1463,99.4512,-50.6098
1595878678,0.1471,-0.8920,0.1640,19.4512,98.9024,-46.3415
1595878678,0.0911,-0.8497,0.1319,19.5732,97.7439,-44.2073
1595878678,0.0742,-0.8492,0.0795,18.4146,96.4024,-40.3659
1595878678,0.0851,-0.8605,0.0593,15.2439,91.5244,-32.8659
1595878678,0.1094,-0.8737,0.0935,12.4390,79.5732,-26.4024
1595878678,0.1464,-0.8732,0.1653,11.5244,65.2439,-21.4634
1595878678,0.1637,-0.8769,0.2121,10.0610,56.6463,-15.7317
1595878678,0.1526,-0.8755,0.1655,6.4634,55.7927,-12.2561
1595878678,0.1019,-0.8818,0.0839,1.5244,57.9878,-11.0976
1595878678,0.0749,-0.9011,0.0656,-5.4878,57.6220,-9.4512
1595878678,0.1080,-0.9075,0.0965,-8.4756,51.0366,-6.9512
1595878678,0.1402,-0.9276,0.1600,-10.1220,45.1220,-2.3171
1595878678,0.1693,-0.9550,0.2238,-10.3049,46.6463,2.0122
1595878678,0.2001,-0.9941,0.3225,-7.8049,51.4634,4.5732
1595878678,0.2238,-1.0137,0.3524,-7.1951,56.4634,7.3780
1595878678,0.2000,-1.0106,0.3111,-5.7927,65.6098,8.3537
1595878678,0.1479,-1.0140,0.2253,-5.3659,75.7317,5.9756
1595878678,0.1157,-0.9927,0.2240,-4.8171,82.3171,3.4146
1595878678,0.1400,-0.9781,0.2534,-5.3659,79.5732,4.0854
1595878678,0.1674,-0.9814,0.3090,-7.3171,71.8902,3.9024
1595878678,0.1682,-0.9794,0.3645,-10.3659,65.9756,2.0122
1595878678,0.2009,-0.9968,0.3597,-13.8415,60.0000,-0.3659
1595878678,0.2189,-1.0199,0.2650,-16.2195,56.6463,-2.7439
1595878678,0.1542,-1.0353,0.2375,-17.1341,58.5366,-5.3049
1595878678,0.0814,-1.0164,0.2755,-18.2927,60.6707,-2.8049
1595878678,0.0677,-1.0038,0.3243,-17.0732,59.6341,2.3171
1595878678,0.1030,-0.9948,0.3820,-15.4268,54.5122,3.9634
1595878678,0.1360,-0.9839,0.4001,-14.8780,45.3049,4.0854
1595878678,0.1943,-0.9772,0.4019,-16.3415,34.2073,2.8659
1595878678,0.2128,-0.9557,0.3738,-18.1707,22.9268,-0.1220
1595878678,0.1784,-0.9517,0.3214,-21.2195,15.4878,-3.1707
1595878678,0.1530,-0.9706,0.2932,-25.3049,11.5244,-4.4512
1595878678,0.0978,-0.9503,0.3245,-26.6463,10.4878,-3.3537
1595878678,0.0524,-0.9386,0.3737,-26.7683,11.4634,1.7073
1595878678,0.1124,-0.9408,0.4163,-26.9512,12.1341,7.1341
1595878678,0.1530,-0.9210,0.4524,-22.3171,12.6829,8.3537
1595878678,0.1411,-0.9037,0.4087,-20.4268,12.7439,8.1098
1595878678,0.1677,-0.9021,0.3726,-20.7317,9.6951,7.8049
1595878678,0.1609,-0.8881,0.3971,-22.0122,1.2805,6.4024
1595878678,0.1514,-0.8922,0.4116,-23.3537,-7.9268,5.7927
1595878678,0.1609,-0.8922,0.4277,-22.9268,-10.3659,5.6098
1595878678,0.1385,-0.8795,0.4246,-20.6098,-5.9756,6.4024
1595878678,0.1011,-0.8743,0.4047,-18.7195,1.5244,8.2317
1595878678,0.1186,-0.8702,0.3899,-17.2561,4.8780,9.7561
1595878678,0.1687,-0.8822,0.4020,-15.9756,2.5610,10.7927
1595878678,0.1891,-0.8953,0.4092,-14.6951,-0.9146,10.4878
1595878678,0.1876,-0.8945,0.4297,-13.9024,-1.8902,10.0000
1595878678,0.1838,-0.8872,0.4274,-13.6585,-1.4024,10.0610
1595878678,0.1558,-0.8984,0.3864,-13.1707,0.0000,8.8415
1595878678,0.1378,-0.9091,0.3531,-13.4756,1.0976,7.2561
1595878678,0.1144,-0.9062,0.3388,-11.4634,2.6220,7.4390
1595878678,0.1102,-0.9387,0.3724,-11.2195,3.0488,7.9878
1595878678,0.1235,-0.9347,0.3909,-8.2317,1.8293,8.1098
1595878678,0.1656,-0.9296,0.4022,-6.3415,-1.5854,7.9268
1595878678,0.2143,-0.9347,0.3987,-4.4512,-5.3049,6.3415
1595878678,0.2480,-0.9343,0.3553,-3.0488,-6.4634,4.7561
1595878678,0.2068,-0.9301,0.3079,-3.8415,-1.9512,3.5976
1595878678,0.1674,-0.9466,0.3242,-5.0610,7.3171,3.6585
1595878678,0.2050,-0.9467,0.4081,-2.8659,13.2317,4.4512
1595878678,0.1876,-0.9437,0.4237,0.7317,16.8293,4.3902
1595878678,0.1746,-0.9380,0.4170,1.7683,20.5488,1.5244
1595878678,0.1528,-0.9319,0.4102,2.9268,20.1220,0.8537
1595878678,0.1597,-0.9482,0.3919,2.2561,13.4146,-1.2195
1595878678,0.1954,-0.9220,0.3427,1.7683,1.8293,-3.3537
1595878678,0.1641,-0.9155,0.3541,0.9146,-5.7317,-3.8415
1595878678,0.1727,-0.9048,0.4111,1.3415,-6.0366,-2.5000
1595878678,0.1892,-0.9067,0.4044,3.4146,-5.1829,-0.9146
1595878678,0.1974,-0.8956,0.4022,2.8659,-6.4024,-1.2805
1595878678,0.1937,-0.8906,0.4113,3.0488,-8.7195,-2.3780
1595878678,0.2238,-0.9046,0.4028,3.1707,-11.0366,-2.9878
1595878678,0.2156,-0.9048,0.3977,3.4756,-12.2561,-4.7561
1595878678,0.2070,-0.9009,0.4107,4.0244,-10.9756,-5.4268
1595878678,0.1581,-0.8842,0.3842,5.7317,-8.4756,-5.0610
1595878678,0.1231,-0.8823,0.3597,5.3659,-7.8049,-5.7317
1595878678,0.1543,-0.8867,0.3644,4.2683,-12.0122,-6.0366
1595878679,0.1932,-0.8813,0.3659,4.8171,-16.4634,-5.6098
1595878679,0.1833,-0.8738,0.3536,4.6951,-16.4634,-3.9024
1595878679,0.1755,-0.8778,0.3599,4.6951,-14.0244,-3.2927
1595878679,0.1797,-0.8839,0.3623,4.5122,-11.7683,-2.6829
1595878679,0.1750,-0.8828,0.3521,3.9024,-9.2683,-2.3780
1595878679,0.1749,-0.8810,0.3571,3.3537,-6.3415,-2.1341
1595878679,0.1808,-0.8845,0.3608,2.3171,-4.8780,-2.0732
1595878679,0.1626,-0.8705,0.3520,1.6463,-4.3902,-2.0122
1595878679,0.1393,-0.8641,0.3441,0.9756,-5.0000,-1.1585
1595878679,0.1666,-0.8909,0.3583,-0.6098,-8.1098,-0.3659
1595878679,0.2089,-0.8883,0.3633,0.3659,-11.6463,-0.6707
1595878679,0.1802,-0.8810,0.3317,0.4878,-11.0976,0.0000
1595878679,0.1547,-0.8775,0.3305,0.3659,-6.3415,1.0366
1595878679,0.1665,-0.8820,0.3546,1.2805,-4.2073,2.5610
1595878679,0.1826,-0.8755,0.3752,2.3171,-5.1220,3.5366
1595878679,0.1754,-0.8704,0.3790,2.7439,-6.3415,3.6585
1595878679,0.1696,-0.8666,0.3865,1.9512,-8.1707,3.1707
1595878679,0.1841,-0.8622,0.3861,1.5854,-10.7927,2.6220
1595878679,0.1785,-0.8569,0.3642,0.9146,-11.6463,1.7683
1595878679,0.1785,-0.8670,0.3474,-0.9146,-10.4878,0.8537
1595878679,0.1750,-0.8768,0.3591,-1.4024,-9.6951,0.6707
1595878679,0.1845,-0.8684,0.3907,0.6707,-8.4146,1.5854
1595878679,0.1635,-0.8621,0.4069,3.3537,-6.7073,2.5000
1595878679,0.1503,-0.8656,0.3945,4.5732,-5.3659,3.3537
1595878679,0.1600,-0.8568,0.3857,5.0610,-7.1951,3.4146
1595878679,0.1630,-0.8697,0.3898,5.1829,-10.6707,3.1707
1595878679,0.1693,-0.8856,0.3912,3.9634,-13.5366,3.2927
1595878679,0.1710,-0.8904,0.3981,3.8415,-15.9756,3.1098
1595878679,0.1948,-0.8962,0.3965,4.4512,-18.2927,3.2927
1595878679,0.1896,-0.9034,0.3892,5.9756,-19.2683,2.6829
1595878679,0.1725,-0.9022,0.3920,6.5854,-19.3902,2.3171
1595878679,0.1723,-0.8937,0.3978,7.0732,-19.9390,2.9268
1595878679,0.1581,-0.8668,0.4004,8.2927,-19.6341,3.1707
1595878679,0.2387,-0.8772,0.3541,7.7439,-18.2317,2.6220
1595878679,0.2556,-0.8963,0.3457,6.4634,-16.4024,0.2439
1595878679,0.1713,-0.8745,0.3875,5.3049,-10.9756,-0.1220
1595878679,0.1567,-0.8858,0.3797,3.5366,-3.9634,2.6829
1595878679,0.1580,-0.8832,0.3698,4.3293,-2.8049,3.3537
1595878679,0.1626,-0.8859,0.3839,5.5488,-5.7927,3.7805
1595878679,0.1894,-0.9012,0.3889,5.4878,-9.2683,4.4512
1595878679,0.2036,-0.9026,0.3888,6.4634,-10.8537,4.5732
1595878679,0.2070,-0.8976,0.3931,6.7683,-10.0000,4.5122
1595878679,0.2068,-0.8959,0.3907,7.1341,-8.4146,4.0854
1595878679,0.1874,-0.8881,0.3729,6.7683,-7.9268,3.2317
1595878679,0.1794,-0.8828,0.3599,5.7927,-8.2927,2.0732
1595878679,0.1896,-0.8831,0.3694,5.9146,-8.9634,1.7683
1595878679,0.1839,-0.8943,0.3821,6.6463,-8.7195,1.3415
1595878679,0.1768,-0.9033,0.3975,7.1951,-8.9024,0.7317
1595878679,0.1815,-0.9093,0.4067,8.2317,-10.7927,0.4268
1595878679,0.1789,-0.9128,0.4017,10.1829,-12.6829,-0.0610
1595878679,0.1768,-0.9059,0.4055,12.3171,-12.9878,-0.0610
1595878679,0.2159,-0.9070,0.3959,14.6341,-11.5244,0.3049
1595878679,0.2089,-0.9170,0.3829,16.5244,-8.7195,-0.5488
1595878679,0.1770,-0.9332,0.3919,16.4024,-5.3659,-2.4390
1595878679,0.1742,-0.9382,0.4096,16.2805,-5.6707,-3.6585
1595878679,0.1655,-0.9370,0.4080,17.3780,-9.3902,-4.8171
1595878679,0.1450,-0.9401,0.3953,17.8659,-12.3171,-6.2805
1595878679,0.1476,-0.9438,0.3937,18.5366,-14.1463,-7.2561
1595878679,0.1488,-0.9518,0.3974,20.0000,-15.5488,-7.8659
1595878679,0.1481,-0.9595,0.3944,21.5854,-16.7073,-8.7805
1595878679,0.1541,-0.9575,0.3887,22.6220,-17.6829,-9.3293
1595878679,0.1592,-0.9576,0.3845,23.1707,-17.8659,-9.4512
1595878679,0.1468,-0.9559,0.3586,22.9268,-17.3780,-9.5122
1595878679,0.1287,-0.9659,0.3332,20.8537,-17.4390,-9.3902
1595878679,0.1220,-0.9634,0.3521,19.2683,-19.2683,-8.4756
1595878679,0.1397,-0.9748,0.3771,19.4512,-21.1585,-7.1341
1595878679,0.1929,-0.9903,0.3685,19.3902,-22.8659,-6.8293
1595878679,0.2281,-0.9882,0.3564,19.3293,-21.9512,-6.8293
1595878679,0.2076,-0.9698,0.3502,17.5000,-17.9268,-5.7317
1595878679,0.1877,-0.9566,0.3445,16.0366,-12.9268,-4.9390
1595878679,0.1956,-0.9544,0.3297,15.0610,-10.1220,-5.1829
1595878679,0.1891,-0.9373,0.3392,13.1098,-9.0244,-4.9390
1595878679,0.1810,-0.9202,0.3552,12.0732,-7.4390,-5.0610
1595878679,0.1667,-0.9078,0.3391,11.0976,-5.9146,-5.8537
1595878679,0.1726,-0.9096,0.3092,9.0244,-5.6707,-6.7073
1595878679,0.1891,-0.9225,0.3138,6.8293,-5.9146,-6.9512
1595878679,0.1862,-0.9244,0.3342,6.6463,-4.5122,-6.2195
1595878679,0.1823,-0.9208,0.3499,7.6829,-0.6098,-5.8537
1595878679,0.1956,-0.9080,0.3547,7.6220,3.2927,-5.7317
1595878679,0.2019,-0.8941,0.3504,7.0122,6.5854,-5.2439
1595878679,0.1960,-0.8773,0.3434,5.9146,9.3293,-4.5732
1595878679,0.2039,-0.8622,0.3322,4.6341,10.6707,-4.2073
1595878679,0.2196,-0.8589,0.3254,2.6220,10.3659,-4.0244
1595878679,0.2184,-0.8541,0.3307,0.2439,9.6951,-3.1098
1595878679,0.2219,-0.8558,0.3281,-1.5854,9.3293,-1.5244
1595878679,0.2023,-0.8627,0.3033,-4.6341,8.4756,0.0000
1595878679,0.2037,-0.8721,0.3000,-8.7195,6.8293,1.6463
1595878679,0.2130,-0.8699,0.3155,-10.1829,4.5732,3.9024
1595878679,0.2149,-0.8616,0.3218,-10.5488,4.3902,6.4024
1595878679,0.2319,-0.8663,0.3232,-11.9512,5.7927,8.7195
1595878679,0.2467,-0.8634,0.3307,-13.6585,7.1341,10.7317
1595878679,0.2474,-0.8585,0.3347,-14.6951,9.3902,12.8049
1595878679,0.2489,-0.8580,0.3388,-15.0610,12.0122,14.3293
1595878679,0.2582,-0.8510,0.3327,-15.3049,13.4756,15.2439
1595878679,0.2758,-0.8519,0.3257,-16.5854,14.3293,15.6707
1595878679,0.2715,-0.8499,0.3382,-17.8659,15.7317,15.7317
1595878679,0.2516,-0.8516,0.3469,-18.4146,17.9268,15.7927
1595878679,0.2560,-0.8451,0.3251,-19.2073,19.7561,15.5488
1595878679,0.2643,-0.8398,0.3125,-20.5488,20.4268,14.8171
1595878679,0.2495,-0.8296,0.3181,-20.6707,22.0122,14.7561
1595878679,0.2365,-0.8248,0.3295,-18.9634,24.8171,15.1220
1595878680,0.2368,-0.8274,0.3333,-17.0732,26.6463,14.8171
1595878680,0.2419,-0.8311,0.3341,-15.8537,26.7683,14.3902
1595878680,0.2454,-0.8273,0.3368,-14.8171,26.0976,14.2683
1595878680,0.2411,-0.8179,0.3367,-14.3902,24.6951,13.7195
1595878680,0.2462,-0.8108,0.3246,-14.5732,22.3171,12.9878
1595878680,0.2610,-0.8174,0.3155,-16.0976,19.2683,12.0732
1595878680,0.2543,-0.8188,0.3151,-18.3537,16.5854,11.7683
1595878680,0.2363,-0.8192,0.3196,-20.3659,15.3659,12.0122
1595878680,0.2146,-0.8138,0.3260,-22.1341,14.8780,12.2561
1595878680,0.2111,-0.8202,0.3307,-23.7805,14.0244,12.0122
1595878680,0.2150,-0.8218,0.3414,-25.1829,12.7439,11.8902
1595878680,0.2208,-0.8236,0.3569,-25.3049,12.3780,12.0122
1595878680,0.2251,-0.8253,0.3697,-24.8171,13.4146,11.6463
1595878680,0.2245,-0.8241,0.3743,-24.3293,15.1220,11.5854
1595878680,0.2182,-0.8192,0.3822,-23.5366,17.1951,11.5854
1595878680,0.2164,-0.8244,0.3726,-22.9878,18.4756,11.1585
1595878680,0.2294,-0.8370,0.3611,-23.7805,17.9268,10.3049
1595878680,0.2311,-0.8307,0.3582,-24.3293,16.4634,10.0610
1595878680,0.2242,-0.8281,0.3637,-25.1829,14.5122,10.4878
1595878680,0.2141,-0.8316,0.3777,-26.0976,12.3171,10.3049
1595878680,0.2174,-0.8452,0.3802,-27.0732,8.9634,9.5732
1595878680,0.2260,-0.8492,0.3911,-28.2927,4.5122,8.6585
1595878680,0.2161,-0.8436,0.4199,-29.2073,-0.2439,7.8659
1595878680,0.2112,-0.8400,0.4377,-30.0000,-4.6951,6.8902
1595878680,0.2183,-0.8425,0.4380,-31.4024,-8.8415,5.7317
1595878680,0.2215,-0.8429,0.4458,-32.5610,-11.8293,5.0610
1595878680,0.2227,-0.8282,0.4631,-32.1951,-13.4756,5.3659
1595878680,0.2200,-0.8084,0.4737,-31.7683,-14.3293,5.6707
1595878680,0.2122,-0.7993,0.4550,-32.8659,-15.0000,5.3049
1595878680,0.1907,-0.8101,0.4354,-35.6098,-15.9756,4.8171
1595878680,0.1860,-0.8118,0.4382,-37.1951,-17.0122,5.4878
1595878680,0.1857,-0.8143,0.4426,-36.8902,-18.4146,6.7073
1595878680,0.2002,-0.8273,0.4606,-37.5000,-19.8780,7.1951
1595878680,0.2234,-0.8404,0.4987,-36.8902,-20.6098,7.5610
1595878680,0.2355,-0.8450,0.5427,-35.2439,-19.5122,8.1707
1595878680,0.2471,-0.8494,0.5593,-33.8415,-15.9146,8.2317
1595878680,0.2529,-0.8677,0.5594,-33.9634,-11.2195,6.7683
1595878680,0.2528,-0.8687,0.5723,-33.0488,-6.3415,5.5488
1595878680,0.2527,-0.8409,0.5752,-29.7561,-0.4268,5.3659
1595878680,0.2311,-0.8376,0.5347,-28.1707,6.1585,4.0854
1595878680,0.2045,-0.8654,0.5016,-30.2439,11.1585,0.9756
1595878680,0.2164,-0.8779,0.5141,-28.4146,13.1707,-0.7317
1595878680,0.2255,-0.8845,0.5338,-23.4146,14.4512,-0.7317
1595878680,0.2081,-0.8911,0.5448,-19.3293,18.5976,-1.1585
1595878680,0.1899,-0.9002,0.5564,-15.0610,24.5122,-3.0488
1595878680,0.1871,-0.9011,0.5710,-10.3049,27.9878,-4.8171
1595878680,0.1981,-0.8979,0.5792,-5.4268,27.9878,-6.2195
1595878680,0.2120,-0.8975,0.5878,-0.9146,25.9756,-8.5366
1595878680,0.2182,-0.8904,0.5822,3.1098,22.5000,-11.8293
1595878680,0.2122,-0.8807,0.5560,6.2195,17.6220,-15.1829
1595878680,0.1953,-0.8708,0.5014,6.8293,11.6463,-18.6585
1595878680,0.1627,-0.8734,0.4533,5.5488,4.8780,-21.7073
1595878680,0.1540,-0.8839,0.4443,4.2073,-4.0244,-24.3293
1595878680,0.1760,-0.8873,0.4628,6.4634,-14.8171,-25.7317
1595878680,0.2127,-0.8923,0.4922,9.8780,-23.5366,-25.7927
1595878680,0.2467,-0.8927,0.5195,13.4756,-27.1951,-25.6707
1595878680,0.2681,-0.8904,0.5317,17.8049,-25.4268,-25.9756
1595878680,0.2820,-0.8884,0.5366,21.5244,-20.2439,-26.0976
1595878680,0.2921,-0.8848,0.5339,24.8171,-15.0000,-26.7683
1595878680,0.2941,-0.8752,0.5161,27.9268,-11.1585,-27.9878
1595878680,0.2961,-0.8614,0.4959,30.0610,-9.2073,-29.3293
1595878680,0.2936,-0.8596,0.4764,30.7317,-9.2073,-30.9756
1595878680,0.2812,-0.8560,0.4596,30.8537,-10.2439,-32.3171
1595878680,0.2605,-0.8593,0.4394,30.3049,-12.1341,-33.4756
1595878680,0.2526,-0.8672,0.4289,29.0244,-14.8780,-34.8780
1595878680,0.2648,-0.8618,0.4280,28.9024,-18.1098,-36.2805
1595878680,0.2808,-0.8562,0.4290,29.1463,-20.4878,-37.5610
1595878680,0.2843,-0.8525,0.4192,29.1463,-20.8537,-38.7195
1595878680,0.2840,-0.8587,0.4071,28.8415,-19.4512,-40.1220
1595878680,0.2996,-0.8711,0.4073,27.6829,-18.8415,-41.3415
1595878680,0.3156,-0.8648,0.3975,26.9512,-18.9024,-41.8293
1595878680,0.3143,-0.8595,0.3834,26.0366,-17.2561,-42.3171
1595878680,0.3128,-0.8563,0.3710,24.2073,-14.3293,-42.5610
1595878680,0.3041,-0.8488,0.3591,22.3780,-11.5854,-42.4390
1595878680,0.2922,-0.8341,0.3445,20.7927,-8.6585,-42.0732
1595878680,0.2892,-0.8195,0.3394,20.1220,-5.9146,-41.1585
1595878680,0.2800,-0.8019,0.3484,19.9390,-3.5366,-40.2439
1595878680,0.2743,-0.7942,0.3505,19.4512,-1.6463,-39.3293
1595878680,0.2861,-0.7945,0.3543,18.4146,-1.4024,-38.5366
1595878680,0.2885,-0.7947,0.3546,17.6829,-2.6220,-38.1098
1595878680,0.2877,-0.7862,0.3400,16.5244,-4.5732,-37.7439
1595878680,0.2983,-0.7851,0.3367,14.0244,-7.5610,-37.1951
1595878680,0.3096,-0.7887,0.3475,10.9756,-13.2317,-36.5854
1595878680,0.3212,-0.7830,0.3581,9.4512,-19.7561,-35.1220
1595878680,0.3201,-0.7742,0.3666,8.7195,-24.0244,-33.1098
1595878680,0.3176,-0.7662,0.3640,8.0488,-25.6098,-31.2195
1595878680,0.3176,-0.7532,0.3489,6.7073,-26.0366,-30.0610
1595878680,0.3188,-0.7471,0.3382,5.1829,-26.5854,-28.9024
1595878680,0.3416,-0.7488,0.3232,4.1463,-28.1707,-27.4390
1595878680,0.3685,-0.7630,0.3201,3.4146,-29.4512,-26.3415
1595878680,0.3746,-0.7735,0.3353,2.4390,-30.2439,-25.0610
1595878680,0.3602,-0.7791,0.3404,2.1951,-30.0610,-22.4390
1595878680,0.3435,-0.7814,0.3387,1.6463,-29.1463,-20.0610
1595878680,0.3373,-0.7803,0.3332,0.5488,-29.1463,-18.1707
1595878680,0.3488,-0.7853,0.3192,-0.8537,-31.5244,-16.4634
1595878680,0.3679,-0.7985,0.3043,-3.2317,-35.4268,-14.9390
1595878680,0.3810,-0.7999,0.2955,-3.9634,-38.2927,-12.8659
1595878680,0.3771,-0.7950,0.2998,-4.2073,-39.3902,-9.9390
1595878680,0.3594,-0.7903,0.3013,-4.3902,-39.8171,-6.7073
1595878680,0.3447,-0.7820,0.2950,-4.2073,-40.0610,-3.7195
1595878681,0.3384,-0.7758,0.2692,-4.5122,-40.7927,-1.2805
1595878681,0.3560,-0.7786,0.2417,-6.5244,-44.1463,0.3049
1595878681,0.3986,-0.7905,0.2314,-10.0610,-50.4268,1.0976
1595878681,0.4161,-0.7960,0.2502,-12.1951,-56.0366,2.3171
1595878681,0.3793,-0.7908,0.2637,-13.1098,-57.3781,4.8780
1595878681,0.3383,-0.7796,0.2627,-13.9024,-54.6951,7.6829
1595878681,0.3364,-0.7750,0.2487,-14.8171,-53.0488,9.4512
1595878681,0.3640,-0.7751,0.2242,-15.9146,-53.2927,10.7927
1595878681,0.3955,-0.7787,0.1998,-16.1585,-52.1341,12.1341
1595878681,0.4080,-0.7911,0.1832,-16.8902,-48.1098,13.5366
1595878681,0.3911,-0.8073,0.1807,-17.3171,-42.3171,15.4268
1595878681,0.3887,-0.8152,0.1840,-17.6829,-36.2195,18.1098
1595878681,0.3931,-0.8263,0.1802,-17.8049,-30.3659,20.3659
1595878681,0.3820,-0.8292,0.1956,-18.9024,-25.4268,21.7073
1595878681,0.3358,-0.8223,0.1819,-20.2439,-20.7927,22.5000
1595878681,0.3174,-0.8227,0.1450,-21.6463,-18.4756,22.2561
1595878681,0.3325,-0.8305,0.1357,-21.5854,-19.0854,20.8537
1595878681,0.3558,-0.8422,0.1392,-20.6098,-21.5244,20.3049
1595878681,0.3660,-0.8691,0.1451,-19.6951,-22.0732,21.0366
1595878681,0.3713,-0.8912,0.1298,-20.4878,-19.9390,21.4634
1595878681,0.3975,-0.9058,0.1254,-21.8902,-18.6585,20.7927
1595878681,0.4108,-0.9156,0.1346,-23.0488,-19.2683,20.3049
1595878681,0.3873,-0.9158,0.1450,-24.2073,-19.0854,20.2439
1595878681,0.3579,-0.9152,0.1513,-25.0610,-15.7317,20.0610
1595878681,0.3547,-0.9234,0.1509,-26.2195,-11.8902,19.5732
1595878681,0.3917,-0.9401,0.1210,-26.8902,-7.5610,18.7805
1595878681,0.4253,-0.9496,0.0842,-27.3780,-0.7317,18.2927
1595878681,0.4129,-0.9514,0.0477,-27.2561,7.9268,18.2927
1595878681,0.3002,-0.9476,0.0424,-27.4390,17.5610,18.5366
1595878681,0.1906,-0.9424,0.0557,-26.7073,24.8780,19.6341
1595878681,0.2017,-0.9547,0.0736,-25.0610,28.9024,21.8902
1595878681,0.2726,-0.9789,0.1019,-22.2561,30.9756,23.2927
1595878681,0.3053,-0.9861,0.1078,-19.2683,35.9146,23.0488
1595878681,0.2761,-0.9777,0.1119,-16.8902,45.0610,23.1098
1595878681,0.2490,-0.9843,0.1149,-15.7927,53.5976,23.3537
1595878681,0.2692,-1.0104,0.1121,-15.0000,57.3781,23.5976
1595878681,0.2634,-1.0394,0.1064,-14.6341,59.5122,23.9024
1595878681,0.2352,-1.0433,0.1092,-14.3902,61.9512,24.5732
1595878681,0.1970,-1.0350,0.1065,-14.3293,64.3293,25.1220
1595878681,0.1849,-1.0341,0.0695,-15.4268,65.0610,24.5732
1595878681,0.2306,-1.0562,0.1201,-16.7683,63.4146,24.2073
1595878681,0.1339,-0.9872,0.1686,-13.5366,68.1707,25.5488
1595878681,0.0360,-0.9641,0.1900,-10.5488,79.6951,28.5976
1595878681,0.0356,-0.9900,0.2240,-10.7317,83.1707,29.9390
1595878681,0.0165,-0.9647,0.2761,-10.9756,76.5854,30.1829
1595878681,0.0494,-0.9634,0.3044,-9.0854,62.3781,30.4268
1595878681,0.0991,-0.9941,0.3373,-10.0610,43.5976,29.6341
1595878681,0.1361,-0.9957,0.3740,-11.2195,25.8537,28.9024
1595878681,0.1192,-0.9639,0.3411,-10.9756,12.9268,28.5976
1595878681,0.1260,-0.9602,0.2266,-13.7805,5.9756,28.1707
1595878681,0.0848,-0.9962,0.2427,-16.4634,10.2439,26.8902
1595878681,-0.0169,-1.0190,0.2408,-17.3171,16.0366,28.1707
1595878681,0.0300,-1.0572,0.2995,-18.7805,8.3537,28.0488
1595878681,0.3510,-1.0855,0.1526,-15.7317,-15.9146,25.7927
1595878681,0.5428,-1.1775,0.2176,-22.5610,-49.0854,3.9634
1595878681,0.5187,-1.1155,0.3353,-17.5000,-66.8293,-4.8171
1595878681,0.3402,-1.0571,0.3209,-9.5732,-52.7439,3.3537
1595878681,0.0773,-0.9343,0.0902,-10.2439,-39.4512,-4.6951
1595878681,0.2205,-0.9907,0.0656,-13.0488,-49.8171,-12.0122
1595878681,0.3068,-0.9620,0.1989,-13.2317,-92.5610,-19.2073
1595878681,0.2341,-0.8493,-0.0765,-4.6951,-131.7683,-22.0732
1595878681,0.1354,-0.9160,-0.0970,-11.5854,-136.5244,-17.2561
1595878681,0.2749,-1.0313,-0.0281,-16.4024,-135.7927,-14.8171
1595878681,0.3542,-1.1210,-0.0359,-10.9146,-132.6829,-14.7561
1595878681,0.3142,-1.0082,-0.0971,-3.8415,-106.2195,-11.5244
1595878681,0.3478,-0.9081,-0.0724,4.3293,-59.3293,-3.8415
1595878681,0.3633,-0.8779,-0.1826,7.3780,-13.1098,-1.5854
1595878681,0.4944,-1.0881,-0.0804,1.4024,8.2927,-5.0000
1595878681,0.3705,-1.1728,0.2052,-1.7073,8.2317,-18.4146
1595878681,-0.0231,-0.9512,0.1108,7.0732,7.4390,-19.4512
1595878681,0.0007,-0.9506,0.1973,5.1220,-1.7073,-22.8049
1595878681,0.1302,-0.9309,0.2828,3.4756,-47.3781,-34.6341
1595878681,0.2245,-0.8856,0.2437,1.8293,-92.9878,-42.0122
1595878681,0.5708,-0.9215,0.2026,-4.2073,-126.7073,-52.5610
1595878681,0.8082,-1.0134,0.1814,-7.7439,-150.0000,-62.2561
1595878681,0.6116,-1.0045,0.1444,-10.3659,-146.8293,-67.4390
1595878681,0.2961,-1.0388,0.4674,-8.2317,-125.6707,-65.7927
1595878681,0.3300,-0.9924,0.4967,2.4390,-117.7439,-57.8659
1595878681,0.3459,-0.9846,0.2130,16.8902,-85.3049,-47.4390
1595878681,0.5110,-0.9587,0.0869,16.3415,-53.8415,-49.4512
1595878681,0.6080,-0.9194,0.0774,18.3537,-44.4512,-47.6829
1595878681,0.5216,-0.9451,0.1173,20.1220,-33.9024,-49.5122
1595878681,0.4963,-0.9391,0.1588,22.0732,-17.8659,-46.8902
1595878681,0.6375,-1.0075,0.1042,22.1951,-18.0488,-43.7195
1595878681,0.4446,-0.8891,0.0168,20.7317,-5.0610,-50.4268
1595878681,0.4158,-0.9006,0.0038,20.8537,20.9146,-46.3415
1595878681,0.6249,-0.9930,0.1108,17.8049,19.4512,-46.2195
1595878681,0.5442,-0.8378,0.1759,22.5000,4.2073,-48.6585
1595878681,0.3618,-0.8181,0.1487,26.0976,6.8902,-48.2317
1595878681,0.4728,-0.9303,0.1193,20.5488,0.6707,-51.1585
1595878681,0.6424,-0.9289,0.0615,21.0976,-26.0366,-51.8293
1595878681,0.7117,-0.8704,-0.0131,19.6341,-44.8171,-52.6829
1595878681,0.7813,-0.8410,0.0210,16.2805,-47.0732,-55.3659
1595878681,0.7875,-0.8813,0.1395,17.0122,-33.9634,-56.4634
1595878681,0.6816,-0.8900,0.2413,20.1829,-7.9268,-54.8781
1595878681,0.5625,-0.8790,0.2993,24.4512,22.0122,-52.3171
1595878681,0.4592,-0.8911,0.3712,27.3171,40.7927,-51.4024
1595878681,0.3422,-0.8765,0.3820,28.3537,39.1463,-52.1341
1595878681,0.3531,-0.8973,0.3467,27.7439,17.5000,-53.9024
1595878681,0.5100,-0.9304,0.3008,26.0366,-14.9390,-58.2927
1595878681,0.5905,-0.8862,0.1601,27.0122,-42.9878,-63.6585
1595878682,0.6695,-0.8380,0.0372,26.4024,-52.0732,-67.0732
1595878682,0.8280,-0.8661,0.0339,24.3293,-48.2317,-70.1829
1595878682,0.8947,-0.8501,0.0598,23.9024,-38.7195,-74.0854
1595878682,0.7946,-0.7882,0.0887,24.5122,-21.8293,-76.8902
1595878682,0.8129,-0.7620,0.1259,23.7195,-6.8293,-79.0244
1595878682,0.8133,-0.7419,0.1196,25.3049,-3.1098,-81.8293
1595878682,0.7751,-0.7237,0.0751,25.6098,-6.4024,-85.6707
1595878682,0.8303,-0.6940,0.0463,23.8415,-14.1463,-87.9878
1595878682,0.8621,-0.6427,0.0110,24.5732,-20.8537,-90.7317
1595878682,0.8389,-0.6242,-0.0007,21.8293,-27.2561,-92.2561
1595878682,0.9146,-0.5938,0.0141,17.1951,-35.1829,-91.8293
1595878682,0.9669,-0.5493,-0.0103,16.3415,-39.5122,-91.2805
1595878682,0.9259,-0.5120,-0.0468,12.6829,-33.7805,-93.0488
1595878682,0.9312,-0.5079,-0.0482,6.5244,-26.8902,-94.0244
1595878682,0.9690,-0.5089,-0.0869,1.0366,-25.4878,-93.5366
1595878682,0.8986,-0.4728,-0.1387,-5.3659,-24.0854,-94.4512
1595878682,0.8614,-0.4539,-0.1340,-13.7805,-24.3293,-94.7561
1595878682,0.8834,-0.4564,-0.1270,-19.8171,-28.3537,-93.9024
1595878682,0.8900,-0.4499,-0.1592,-26.0976,-31.8902,-93.4146
1595878682,0.8705,-0.4173,-0.1426,-33.7805,-30.7927,-93.5976
1595878682,0.9003,-0.4203,-0.1719,-40.1829,-31.0976,-93.0488
1595878682,0.8752,-0.4329,-0.1973,-47.2561,-31.3415,-93.4146
1595878682,0.8517,-0.4120,-0.2220,-55.5488,-32.9268,-89.5732
1595878682,0.8591,-0.4091,-0.2145,-62.3171,-34.5732,-87.5000
1595878682,0.8802,-0.4302,-0.1750,-67.9878,-37.1341,-87.2561
1595878682,0.8801,-0.4315,-0.1310,-71.7683,-38.7805,-85.8537
1595878682,0.8456,-0.4040,-0.1089,-73.9024,-36.0976,-82.8049
1595878682,0.7971,-0.3607,-0.1003,-75.9756,-33.7805,-77.3781
1595878682,0.7477,-0.3497,-0.1226,-77.6220,-33.5366,-72.8049
1595878682,0.6740,-0.3627,-0.1617,-80.6707,-34.2073,-69.5122
1595878682,0.6306,-0.4033,-0.1838,-84.3293,-34.6951,-64.9390
1595878682,0.6524,-0.4594,-0.1629,-86.7073,-37.9878,-60.3659
1595878682,0.6686,-0.4664,-0.1240,-86.3415,-47.0122,-55.3659
1595878682,0.6641,-0.4341,-0.1115,-83.5976,-51.8902,-46.4634
1595878682,0.7117,-0.4516,-0.1053,-81.8293,-52.4390,-38.6585
1595878682,0.7475,-0.4800,-0.0822,-81.1585,-53.6585,-33.9024
1595878682,0.7526,-0.4776,-0.0697,-79.8781,-54.2683,-27.1341
1595878682,0.7902,-0.5020,-0.0613,-77.5000,-53.5976,-20.6707
1595878682,0.8431,-0.5269,-0.0069,-73.2317,-54.2683,-16.2195
1595878682,0.8467,-0.5333,0.0062,-67.6829,-56.2195,-12.3171
1595878682,0.7914,-0.5543,-0.0260,-63.0488,-54.8781,-9.3293
1595878682,0.7181,-0.5927,-0.0011,-57.1341,-50.3659,-7.5610
1595878682,0.7048,-0.6149,0.0329,-48.5976,-51.9512,-5.0610
1595878682,0.7022,-0.6091,0.0047,-38.9634,-56.8293,-2.1951
1595878682,0.6863,-0.6348,-0.0174,-32.2561,-49.2683,1.4024
1595878682,0.7354,-0.6387,-0.0399,-25.9146,-40.3659,8.1098
1595878682,0.8124,-0.6304,-0.1252,-20.9756,-29.3293,16.5854
1595878682,0.8658,-0.6259,-0.1818,-20.3659,-8.7195,22.2561
1595878682,0.8571,-0.6259,-0.1861,-19.1463,11.8293,26.5854
1595878682,0.8320,-0.6429,-0.1811,-14.9390,30.0610,29.8171
1595878682,0.7437,-0.6796,-0.1281,-11.4634,45.8537,30.6707
1595878682,0.6758,-0.6690,-0.0467,-9.5122,52.3781,29.5122
1595878682,0.7187,-0.5741,-0.0043,-0.6098,54.2683,33.5366
1595878682,0.7314,-0.5192,0.0297,8.8415,63.9634,37.3171
1595878682,0.7349,-0.4852,-0.0093,13.8415,86.6463,33.7195
1595878682,0.7383,-0.4661,-0.0945,16.9512,105.3659,30.3049
1595878682,0.6515,-0.4481,-0.1500,15.5488,106.5244,29.6951
1595878682,0.6295,-0.4042,-0.1757,9.0244,86.9512,28.7805
1595878682,0.7682,-0.3876,-0.1223,1.2805,58.1098,30.4878
1595878682,0.8846,-0.4169,-0.1067,-5.2439,31.3415,27.1951
1595878682,0.7235,-0.3419,-0.2081,-8.5976,16.4634,26.0976
1595878682,0.9310,-0.3091,-0.1663,-11.1585,11.7073,28.2927
1595878682,1.3168,-0.3381,-0.0015,-15.1829,6.2195,21.4634
1595878682,1.3607,-0.3428,-0.0508,-12.9878,16.1585,19.0854
1595878682,1.1702,-0.4294,-0.1351,-5.5488,52.9878,24.5122
1595878682,1.1736,-0.5186,-0.2274,1.5854,107.6220,30.5488
1595878682,1.0795,-0.5024,-0.3105,1.0976,151.2195,32.1951
1595878682,0.8590,-0.4324,-0.3210,-2.5000,182.3171,30.4878
1595878682,0.9495,-0.5217,-0.1863,-8.4756,205.4268,34.1463
1595878682,0.9483,-0.5352,-0.0033,-18.3537,223.7195,34.6341
1595878682,0.7168,-0.4887,0.1040,-17.0732,254.3293,32.8659
1595878682,0.4727,-0.4724,0.1620,-13.3537,293.3537,38.2317
1595878682,0.2924,-0.4603,0.2620,-9.2073,307.7439,42.6220
1595878682,0.5000,-0.4436,0.3863,-10.0000,287.3171,44.0244
1595878682,0.4999,-0.4139,0.3342,-13.4756,234.0244,41.4024
1595878682,0.1742,-0.3601,0.2549,-15.0000,188.2317,39.2073
1595878682,0.3993,-0.5844,0.3647,-20.6098,149.2683,49.2073
1595878682,0.8463,-0.7662,0.5231,-25.2439,85.9146,50.6098
1595878682,0.9326,-0.6470,0.3657,-19.1463,43.6585,49.3293
1595878682,0.9555,-0.5911,0.2438,-14.6951,46.4634,47.9268
1595878682,1.0306,-0.6164,0.2133,-17.9268,64.6951,45.9756
1595878682,0.9453,-0.5810,0.1998,-18.4756,83.7195,45.7927
1595878682,0.8401,-0.5740,0.2042,-17.2561,100.9756,44.2683
1595878682,0.7582,-0.6246,0.2887,-20.8537,108.5366,41.7073
1595878682,0.7369,-0.6519,0.3740,-21.8293,106.4024,38.6585
1595878682,0.7429,-0.6453,0.3911,-19.5732,104.0244,37.5610
1595878682,0.6898,-0.6281,0.3524,-17.1951,105.0000,36.4634
1595878682,0.8068,-0.6544,0.3431,-17.2561,106.0366,34.8780
1595878682,0.8363,-0.6584,0.4748,-14.0244,119.6951,39.2683
1595878682,0.6122,-0.6810,0.6475,-10.4878,141.4634,40.7927
1595878682,0.4225,-0.7216,0.5933,-9.2683,127.9878,37.5000
1595878682,0.4850,-0.6770,0.4822,-6.4024,73.9634,28.8415
1595878682,0.5872,-0.6827,0.4810,-7.3780,31.8293,27.1951
1595878682,0.6620,-0.7139,0.5050,-11.0976,12.6829,28.0488
1595878682,0.6855,-0.7404,0.5067,-10.5488,4.4512,27.0122
1595878682,0.7193,-0.7172,0.4510,-10.1829,5.7317,28.7805
1595878682,0.7892,-0.6829,0.3492,-7.8049,17.3780,30.0000
1595878682,0.7753,-0.6648,0.3248,-5.4878,39.3902,27.0122
1595878682,0.6954,-0.6576,0.3442,-6.5854,66.3415,26.4634
1595878682,0.6268,-0.6755,0.4388,-9.6341,90.4878,26.8293
1595878682,0.5798,-0.6469,0.4879,-11.5244,106.2195,27.1951
1595878683,0.4351,-0.6478,0.4215,-14.2073,115.1220,28.3537
1595878683,0.2402,-0.6448,0.4435,-17.0122,118.1098,28.9024
1595878683,0.1907,-0.6519,0.4525,-17.5610,104.3293,33.3537
1595878683,0.2905,-0.6940,0.4598,-18.1707,74.0244,37.1951
1595878683,0.4208,-0.7282,0.4294,-18.1098,44.8780,38.6585
1595878683,0.4940,-0.7251,0.4136,-17.5000,32.5610,39.5122
1595878683,0.5938,-0.7337,0.4263,-16.7073,35.4268,41.0366
1595878683,0.6694,-0.7780,0.3447,-15.0610,45.9146,41.5244
1595878683,0.6777,-0.8054,0.3610,-20.1220,61.2805,37.2561
1595878683,0.5428,-0.7607,0.4452,-20.7927,79.8781,36.5244
1595878683,0.4229,-0.7896,0.5070,-24.3293,95.9756,36.7073
1595878683,0.3623,-0.8332,0.5616,-23.4146,94.0244,32.3171
1595878683,0.3168,-0.8200,0.5755,-20.8537,76.6463,30.9146
1595878683,0.3306,-0.8178,0.5788,-17.9878,58.4146,30.2439
1595878683,0.4001,-0.8063,0.5410,-14.5122,43.4756,27.5000
1595878683,0.4484,-0.7777,0.4887,-11.5244,32.7439,24.6951
1595878683,0.4987,-0.7754,0.4626,-11.1585,28.1707,22.3171
1595878683,0.6111,-0.8233,0.4396,-10.8537,28.2927,20.2439
1595878683,0.6288,-0.8416,0.4789,-9.6341,37.4390,17.3171
1595878683,0.5558,-0.8323,0.5342,-7.9268,57.3171,15.8537
1595878683,0.4270,-0.8279,0.5438,-6.0976,77.9268,13.7805
1595878683,0.2913,-0.8043,0.5579,-4.5122,86.2805,10.1220
1595878683,0.2653,-0.8081,0.5477,-3.2927,75.7927,8.1707
1595878683,0.3206,-0.8014,0.5601,-2.5000,53.3537,5.6098
1595878683,0.3868,-0.7758,0.5697,-1.2195,33.5366,3.8415
1595878683,0.4188,-0.7594,0.5610,-0.8537,24.8171,4.2073
1595878683,0.4265,-0.7554,0.5247,-0.6707,25.7927,5.0000
1595878683,0.4260,-0.7650,0.4941,-1.4634,30.8537,5.2439
1595878683,0.4247,-0.7614,0.5038,-1.5854,36.0366,5.1829
1595878683,0.4028,-0.7599,0.5148,-1.7073,41.8293,5.8537
1595878683,0.3638,-0.7476,0.5255,-1.8293,47.5000,5.0610
1595878683,0.3417,-0.7447,0.5298,-2.1341,49.6951,4.3293
1595878683,0.3251,-0.7442,0.5328,-3.1098,47.3171,3.9634
1595878683,0.3605,-0.7551,0.5371,-3.5976,42.5610,3.4756
1595878683,0.3740,-0.7551,0.5559,-2.9878,39.2683,3.4146
1595878683,0.3373,-0.7581,0.5795,-3.2927,39.0244,3.5366
1595878683,0.2718,-0.7442,0.5829,-3.7195,38.5976,4.3293
1595878683,0.1718,-0.7169,0.5399,-3.0488,34.7561,5.2439
1595878683,0.1733,-0.7206,0.4967,-4.0244,27.9878,7.0732
1595878683,0.2520,-0.7354,0.4872,-4.3293,19.7561,8.7805
1595878683,0.3050,-0.7498,0.4831,-4.5732,14.3902,9.8780
1595878683,0.3044,-0.7604,0.4801,-5.7927,15.5488,10.6707
1595878683,0.3043,-0.7665,0.4862,-6.5854,17.3780,10.9146
1595878683,0.3080,-0.7698,0.4874,-6.2195,18.8415,11.5854
1595878683,0.3253,-0.7830,0.5339,-5.6707,23.2927,11.5854
1595878683,0.2191,-0.7354,0.5610,-5.0000,29.5732,11.8902
1595878683,0.1048,-0.7347,0.5211,-6.7073,32.2561,13.1707
1595878683,0.2354,-0.8620,0.5810,-10.0000,26.0366,15.3049
1595878683,0.2987,-0.8076,0.5457,-6.2195,9.3902,13.2927
1595878683,0.2595,-0.7557,0.5058,-7.0732,-0.9756,11.6463
1595878683,0.1790,-0.7529,0.4803,-10.3049,0.5488,12.6829
1595878683,0.1360,-0.7817,0.4845,-11.5244,0.6707,14.4512
1595878683,0.1750,-0.8041,0.5406,-13.1098,-3.9024,16.5854
1595878683,0.2180,-0.8103,0.5679,-14.3293,-9.9390,17.9878
1595878683,0.2049,-0.7964,0.5482,-16.2805,-9.9390,18.4146
1595878683,0.1694,-0.8040,0.5051,-17.5610,-4.4512,18.2317
1595878683,0.1642,-0.8480,0.4557,-17.2561,-0.8537,18.6585
1595878683,0.2307,-0.8924,0.5209,-16.2805,-2.1341,19.8171
1595878683,0.2029,-0.8238,0.5486,-14.5732,-3.7805,19.2073
1595878683,0.1816,-0.7813,0.5146,-16.2805,-5.4268,18.7805
1595878683,0.2699,-0.7915,0.5034,-17.9268,-7.5000,19.8780
1595878683,0.2368,-0.7952,0.3669,-18.3537,-12.5000,19.2683
1595878683,0.2867,-0.9123,0.3370,-21.7683,-18.0488,18.9634
1595878683,0.4097,-1.0436,0.6664,-21.5244,-19.6951,19.4512
1595878683,0.3798,-0.8018,0.6549,-12.9878,-35.6707,11.5244
1595878683,0.2863,-0.7512,0.5378,-9.8171,-38.7195,9.5732
1595878683,0.2289,-0.7671,0.4891,-8.2927,-22.1951,10.0000
1595878683,0.2718,-0.7629,0.4609,-7.4390,-18.4146,8.5976
1595878683,0.2709,-0.7571,0.4357,-5.4878,-27.8659,5.9146
1595878683,0.2871,-0.7988,0.4421,-4.5732,-29.4512,5.7927
1595878683,0.3116,-0.8207,0.4378,-5.3049,-27.4390,5.8537
1595878683,0.3150,-0.8217,0.4411,-6.4634,-30.7927,5.1829
1595878683,0.3276,-0.8303,0.4445,-7.7439,-34.0854,4.7561
1595878683,0.3770,-0.8495,0.4504,-7.1951,-36.0366,3.3537
1595878683,0.3985,-0.8525,0.4664,-5.6098,-33.9634,1.5854
1595878683,0.3866,-0.8446,0.4703,-4.2073,-26.0366,1.5244
1595878683,0.3732,-0.8459,0.4843,-3.4146,-15.1220,1.7683
1595878683,0.3381,-0.8420,0.4751,-3.3537,-8.0488,0.8537
1595878683,0.3123,-0.8282,0.4669,-3.4146,-7.1341,-0.1829
1595878683,0.3008,-0.8228,0.4601,-3.7805,-10.4878,-0.4268
1595878683,0.2917,-0.8163,0.4616,-4.3902,-17.8049,-0.7317
1595878683,0.2772,-0.8134,0.4648,-5.9146,-26.0366,-0.4268
1595878683,0.2491,-0.8135,0.4681,-7.0732,-34.5122,-0.6098
1595878683,0.2382,-0.8159,0.4937,-7.6829,-44.3902,0.1220
1595878683,0.2809,-0.8228,0.5105,-7.0732,-54.5732,0.9146
1595878683,0.3542,-0.8301,0.4885,-4.8780,-58.2927,0.6098
1595878683,0.3739,-0.8301,0.4717,-2.7439,-49.6341,0.3659
1595878683,0.3642,-0.8329,0.4628,-1.0976,-33.2927,0.7927
1595878683,0.3463,-0.8336,0.4598,0.5488,-17.0732,0.4878
1595878683,0.3243,-0.8321,0.4511,1.0366,-6.1585,-0.0610
1595878683,0.3046,-0.8199,0.4508,0.3049,-2.0732,-0.9146
1595878683,0.2866,-0.8134,0.4554,-0.3049,-2.5610,-1.0366
1595878683,0.2783,-0.8126,0.4577,-0.4268,-4.5732,-1.0366
1595878683,0.2897,-0.8184,0.4588,-0.6707,-7.4390,-1.0976
1595878683,0.3031,-0.8201,0.4650,-0.5488,-10.1220,-1.0366
1595878683,0.3096,-0.8130,0.4583,0.3049,-11.2805,-0.9756
1595878683,0.3109,-0.8054,0.4436,0.9146,-10.8537,-0.7927
1595878683,0.3135,-0.7998,0.4323,1.0366,-10.8537,-0.7317
1595878683,0.3135,-0.7990,0.4232,0.5488,-12.6220,-0.7317
1595878683,0.3115,-0.8059,0.4172,-0.7317,-14.9390,-0.5488
1595878684,0.3304,-0.8231,0.4164,-2.4390,-16.2805,-0.6098
1595878684,0.3671,-0.8362,0.4220,-3.1098,-17.4390,-1.0976
1595878684,0.3756,-0.8383,0.4332,-2.7439,-17.1951,-1.4024
1595878684,0.3629,-0.8351,0.4418,-2.5000,-13.9634,-1.9512
1595878684,0.3490,-0.8325,0.4506,-1.5244,-9.7561,-2.5000
1595878684,0.3303,-0.8345,0.4526,-0.4878,-6.8293,-3.3537
1595878684,0.3122,-0.8328,0.4572,-0.0610,-5.6098,-4.2073
1595878684,0.2947,-0.8271,0.4554,0.8537,-6.5854,-5.0000
1595878684,0.2692,-0.8362,0.4338,-0.1220,-9.6341,-5.1220
1595878684,0.2612,-0.8367,0.4163,-1.2195,-14.5122,-5.0610
1595878684,0.2643,-0.8446,0.4260,-0.3049,-19.6951,-5.1220
1595878684,0.2740,-0.8401,0.4079,0.9146,-24.2073,-5.1220
1595878684,0.2866,-0.8470,0.3969,1.1585,-26.7073,-5.0610
1595878684,0.2930,-0.8553,0.3992,1.4024,-26.5854,-4.6341
1595878684,0.2936,-0.8757,0.3734,1.2195,-24.8171,-4.6951
1595878684,0.2518,-0.8963,0.3246,-0.5488,-22.0732,-6.0366
1595878684,0.2174,-0.9163,0.2964,-2.0732,-20.4268,-5.5488
1595878684,0.2351,-0.9089,0.2803,0.0000,-22.9268,-3.1707
1595878684,0.2595,-0.8846,0.3074,5.2439,-24.9390,-5.0000
1595878684,0.2585,-0.8644,0.3405,9.6341,-19.7561,-4.7561
1595878684,0.3051,-0.8799,0.3331,12.0122,-10.7317,-4.2683
1595878684,0.3882,-0.9514,0.3126,10.4268,-7.6829,-7.2561
1595878684,0.4342,-0.9792,0.3780,10.3659,-10.1220,-10.9756
1595878684,0.3842,-0.9655,0.4574,14.7561,-8.5976,-9.2683
1595878684,0.2762,-0.9768,0.4845,17.9268,-2.3780,-7.0732
1595878684,0.2054,-1.0022,0.4813,20.4878,0.0610,-8.6585
1595878684,0.1784,-0.9981,0.4474,23.2317,-6.8902,-9.2683
1595878684,0.1923,-0.9692,0.4113,24.4512,-19.8171,-10.9756
1595878684,0.2181,-0.9457,0.3618,23.6585,-33.5366,-14.6341
1595878684,0.2310,-0.9451,0.3301,20.6098,-45.0000,-18.2317
1595878684,0.2425,-0.9344,0.3450,19.4512,-52.8659,-18.7195
1595878684,0.2284,-0.9318,0.3691,19.8171,-56.2195,-18.1707
1595878684,0.2023,-0.9435,0.3680,18.9634,-56.0366,-18.4146
1595878684,0.2293,-0.9586,0.3564,18.5976,-52.5610,-18.1707
1595878684,0.2503,-0.9545,0.3477,20.7317,-46.0976,-18.7805
1595878684,0.2465,-0.9639,0.3442,22.1341,-36.1585,-18.0488
1595878684,0.2177,-0.9630,0.3094,22.3780,-25.9756,-16.0366
1595878684,0.1907,-0.9737,0.2141,19.7561,-19.7561,-14.0854
1595878684,0.2074,-0.9703,0.1768,15.0000,-17.3171,-11.7073
1595878684,0.2483,-0.9561,0.2171,14.8780,-16.8902,-7.5000
1595878684,0.2520,-0.9560,0.2650,15.7317,-14.6951,-3.1098
1595878684,0.2266,-0.9512,0.2900,14.3293,-11.5244,0.4878
1595878684,0.2159,-0.9427,0.2696,11.8293,-11.3415,4.8780
1595878684,0.2426,-0.9290,0.2606,9.1463,-14.3293,9.6951
1595878684,0.2626,-0.9182,0.2625,7.4390,-17.8049,13.4756
1595878684,0.2698,-0.9119,0.2625,6.1585,-21.2805,17.5610
1595878684,0.2719,-0.9015,0.2557,4.5732,-24.8780,22.9268
1595878684,0.2831,-0.8940,0.2679,2.0122,-29.2073,28.5366
1595878684,0.2790,-0.8838,0.2582,0.4268,-34.0244,34.2073
1595878684,0.2287,-0.8859,0.1804,-2.1341,-38.9634,40.0000
1595878684,0.2300,-0.8965,0.1519,-8.1098,-46.6463,46.8902
1595878684,0.2795,-0.8818,0.1862,-10.4878,-56.7683,56.8293
1595878684,0.3073,-0.8744,0.2274,-9.9390,-63.6585,65.6707
1595878684,0.3103,-0.8698,0.2519,-10.1220,-65.9756,72.7439
1595878684,0.3413,-0.8765,0.2775,-11.2805,-68.2927,80.3049
1595878684,0.3621,-0.8674,0.3012,-11.0366,-71.0976,87.2561
1595878684,0.3670,-0.8504,0.3202,-9.8171,-74.0244,92.1951
1595878684,0.3798,-0.8340,0.3188,-8.7195,-78.7195,96.5244
1595878684,0.3998,-0.8275,0.3107,-8.1707,-85.3659,99.8781
1595878684,0.4149,-0.8297,0.3130,-8.4146,-92.3171,102.4390
1595878684,0.4051,-0.8316,0.3239,-8.4146,-97.4390,104.9390
1595878684,0.3922,-0.8230,0.3279,-7.0732,-100.7927,107.4390
1595878684,0.4035,-0.8193,0.3184,-6.0976,-103.8415,108.9634
1595878684,0.4344,-0.8166,0.3372,-5.3049,-106.2805,109.9390
1595878684,0.4445,-0.7955,0.3642,-2.1341,-105.9756,111.2805
1595878684,0.4395,-0.7911,0.3907,1.0366,-103.0488,111.7683
1595878684,0.4456,-0.7942,0.4017,3.4146,-101.8902,111.2805
1595878684,0.4518,-0.7813,0.4025,5.2439,-103.8415,110.1829
1595878684,0.4478,-0.7610,0.4028,5.6707,-106.7683,108.1098
1595878684,0.4480,-0.7553,0.3968,5.0000,-110.7927,105.2439
1595878684,0.4430,-0.7639,0.4052,3.1707,-116.0976,101.6463
1595878684,0.4266,-0.7615,0.4354,1.5244,-121.0366,98.4756
1595878684,0.4293,-0.7563,0.4655,2.1341,-123.4146,96.5854
1595878684,0.4364,-0.7618,0.5057,3.4146,-122.8049,94.6341
1595878684,0.4250,-0.7490,0.5513,5.6098,-118.1098,92.5610
