time,ax,ay,az,gx,gy,gz
1595878656,-0.0181,-0.9872,-0.0251,-0.3049,0.0000,-0.0610
1595878656,-0.0178,-0.9957,-0.0246,-0.3049,0.0000,-0.1220
1595878656,-0.0179,-0.9913,-0.0236,-0.2439,-0.0610,-0.0610
1595878656,-0.0198,-0.9932,-0.0241,-0.1829,-0.0610,0.0000
1595878656,-0.0181,-0.9943,-0.0252,-0.2439,-0.0610,-0.0610
1595878656,-0.0183,-0.9923,-0.0254,-0.2439,-0.0610,-0.0610
1595878656,-0.0192,-0.9925,-0.0264,-0.2439,-0.1220,-0.1220
1595878656,-0.0169,-0.9952,-0.0240,-0.1829,0.0610,-0.0610
1595878656,-0.0170,-0.9940,-0.0246,-0.1829,-0.0610,-0.0610
1595878656,-0.0180,-0.9934,-0.0240,-0.3049,-0.0610,-0.0610
1595878656,-0.0178,-0.9934,-0.0281,-0.2439,-0.0610,-0.1220
1595878656,-0.0186,-0.9929,-0.0267,-0.3049,-0.0610,-0.0610
1595878656,-0.0172,-0.9931,-0.0263,-0.3049,0.0000,-0.0610
1595878656,-0.0167,-0.9942,-0.0270,-0.2439,-0.0610,-0.0610
1595878656,-0.0172,-0.9935,-0.0266,-0.2439,-0.0610,-0.1220
1595878656,-0.0205,-0.9932,-0.0227,-0.2439,0.0000,-0.0610
1595878656,-0.0192,-0.9931,-0.0247,-0.3659,0.0000,-0.0610
1595878656,-0.0159,-0.9922,-0.0267,-0.3049,0.0000,-0.0610
1595878656,-0.0154,-0.9937,-0.0235,-0.3049,-0.0610,-0.0610
1595878656,-0.0164,-0.9929,-0.0273,-0.3659,-0.0610,0.0000
1595878656,-0.0165,-0.9938,-0.0253,-0.3049,0.0000,-0.0610
1595878656,-0.0164,-0.9895,-0.0252,-0.2439,-0.0610,-0.1220
1595878656,-0.0177,-0.9918,-0.0259,-0.2439,-0.1220,-0.1220
1595878656,-0.0184,-0.9933,-0.0252,-0.2439,-0.0610,-0.1220
1595878656,-0.0202,-0.9922,-0.0239,-0.1829,0.0000,0.0000
1595878656,-0.0173,-0.9919,-0.0274,-0.2439,0.0000,0.0000
1595878656,-0.0173,-0.9916,-0.0258,-0.3049,0.0000,-0.1220
1595878657,-0.0178,-0.9935,-0.0254,-0.2439,-0.0610,-0.1220
1595878657,-0.0184,-0.9925,-0.0263,-0.2439,-0.0610,-0.1220
1595878657,-0.0180,-0.9916,-0.0258,-0.3049,0.0000,-0.1220
1595878657,-0.0168,-0.9927,-0.0233,-0.2439,0.0000,-0.1220
1595878657,-0.0162,-0.9937,-0.0242,-0.2439,0.0000,-0.1220
1595878657,-0.0183,-0.9921,-0.0233,-0.2439,0.0610,-0.0610
1595878657,-0.0184,-0.9927,-0.0229,-0.2439,0.0000,-0.0610
1595878657,-0.0178,-0.9924,-0.0270,-0.3049,-0.0610,-0.0610
1595878657,-0.0168,-0.9923,-0.0275,-0.3049,0.0000,-0.0610
1595878657,-0.0167,-0.9926,-0.0269,-0.3049,-0.0610,0.0000
1595878657,-0.0176,-0.9922,-0.0229,-0.3049,-0.1220,-0.0610
1595878657,-0.0179,-0.9923,-0.0224,-0.3049,0.0000,0.0000
1595878657,-0.0168,-0.9932,-0.0244,-0.2439,-0.0610,-0.1220
1595878657,-0.0167,-0.9921,-0.0253,-0.2439,0.0000,-0.1220
1595878657,-0.0168,-0.9930,-0.0247,-0.3049,0.0000,-0.1220
1595878657,-0.0183,-0.9927,-0.0261,-0.3049,-0.0610,0.0000
1595878657,-0.0183,-0.9937,-0.0281,-0.2439,-0.1220,0.0000
1595878657,-0.0183,-0.9926,-0.0253,-0.3049,-0.0610,-0.1220
1595878657,-0.0172,-0.9922,-0.0252,-0.3049,0.0000,-0.0610
1595878657,-0.0190,-0.9922,-0.0245,-0.2439,-0.0610,0.0000
1595878657,-0.0168,-0.9930,-0.0259,-0.2439,-0.0610,-0.0610
1595878657,-0.0182,-0.9937,-0.0248,-0.3049,0.0000,-0.0610
1595878657,-0.0182,-0.9933,-0.0263,-0.3049,0.0000,-0.0610
1595878657,-0.0167,-0.9948,-0.0268,-0.3049,0.0000,-0.1220
1595878657,-0.0178,-0.9935,-0.0248,-0.2439,0.0000,-0.0610
1595878657,-0.0179,-0.9924,-0.0245,-0.2439,0.0610,-0.1220
1595878657,-0.0177,-0.9921,-0.0259,-0.1829,0.0610,-0.0610
1595878657,-0.0182,-0.9929,-0.0258,-0.2439,0.0000,-0.1220
1595878657,-0.0189,-0.9961,-0.0271,-0.3049,-0.1220,-0.1829
1595878657,-0.0161,-0.9943,-0.0255,-0.2439,-0.0610,-0.0610
1595878657,-0.0166,-0.9937,-0.0249,-0.1829,0.0000,-0.1220
1595878657,-0.0168,-0.9927,-0.0242,-0.2439,0.0000,-0.1220
1595878657,-0.0153,-0.9936,-0.0228,-0.3049,0.0000,-0.0610
1595878657,-0.0176,-0.9925,-0.0227,-0.2439,-0.0610,-0.1829
1595878657,-0.0185,-0.9926,-0.0245,-0.1829,-0.1220,-0.1829
1595878657,-0.0181,-0.9905,-0.0226,-0.3049,-0.0610,-0.0610
1595878657,-0.0175,-0.9916,-0.0246,-0.3659,0.0000,0.0000
1595878657,-0.0168,-0.9926,-0.0251,-0.3049,0.0000,-0.0610
1595878657,-0.0172,-0.9925,-0.0256,-0.3049,0.0000,-0.1829
1595878657,-0.0181,-0.9927,-0.0269,-0.3049,0.0000,-0.1220
1595878657,-0.0180,-0.9937,-0.0252,-0.3049,0.0000,-0.0610
1595878657,-0.0171,-0.9926,-0.0270,-0.2439,0.0000,-0.0610
1595878657,-0.0164,-0.9923,-0.0264,-0.2439,0.0000,-0.1220
1595878657,-0.0177,-0.9926,-0.0239,-0.2439,0.0000,-0.1220
1595878657,-0.0184,-0.9929,-0.0232,-0.2439,-0.1220,0.0000
1595878657,-0.0173,-0.9931,-0.0238,-0.3049,-0.0610,0.0000
1595878657,-0.0172,-0.9927,-0.0256,-0.1829,0.0000,-0.0610
1595878657,-0.0169,-0.9931,-0.0248,-0.3049,0.0610,-0.0610
1595878657,-0.0174,-0.9917,-0.0251,-0.3049,-0.0610,0.0000
1595878657,-0.0172,-0.9928,-0.0236,-0.2439,-0.0610,-0.1220
1595878657,-0.0172,-0.9934,-0.0228,-0.3659,0.0000,-0.0610
1595878657,-0.0193,-0.9920,-0.0272,-0.3049,-0.0610,-0.0610
1595878657,-0.0176,-0.9938,-0.0248,-0.1220,-0.0610,-0.1220
1595878657,-0.0177,-0.9929,-0.0222,-0.1829,0.0000,-0.1220
1595878657,-0.0175,-0.9924,-0.0255,-0.3049,0.0000,-0.1220
1595878657,-0.0187,-0.9926,-0.0242,-0.3049,0.0000,-0.0610
1595878657,-0.0186,-0.9932,-0.0234,-0.3049,0.0000,-0.1220
1595878657,-0.0162,-0.9961,-0.0250,-0.3049,-0.0610,-0.1220
1595878657,-0.0172,-0.9923,-0.0245,-0.2439,-0.0610,-0.0610
1595878657,-0.0165,-0.9941,-0.0234,-0.3659,-0.0610,-0.0610
1595878657,-0.0163,-0.9918,-0.0255,-0.3049,-0.0610,-0.1220
1595878657,-0.0159,-0.9933,-0.0237,-0.2439,0.0610,-0.0610
1595878657,-0.0146,-0.9926,-0.0249,-0.2439,0.0000,-0.1220
1595878657,-0.0160,-0.9920,-0.0272,-0.2439,0.0000,-0.0610
1595878657,-0.0182,-0.9951,-0.0262,-0.3049,0.0000,-0.1220
1595878657,-0.0173,-0.9939,-0.0236,-0.1829,0.0610,-0.0610
1595878657,-0.0179,-0.9933,-0.0238,-0.2439,-0.1220,-0.0610
1595878657,-0.0179,-0.9942,-0.0273,-0.1829,-0.0610,-0.1220
1595878657,-0.0174,-0.9927,-0.0247,-0.2439,-0.0610,-0.0610
1595878657,-0.0168,-0.9951,-0.0259,-0.2439,0.0000,-0.1220
1595878657,-0.0150,-0.9932,-0.0250,-0.1829,-0.0610,-0.1220
1595878657,-0.0166,-0.9922,-0.0248,-0.3049,-0.0610,-0.1829
1595878657,-0.0184,-0.9916,-0.0246,-0.3659,0.0000,-0.0610
1595878657,-0.0198,-0.9910,-0.0244,-0.2439,0.0610,-0.0610
1595878657,-0.0173,-0.9922,-0.0255,-0.2439,-0.0610,-0.0610
1595878657,-0.0193,-0.9942,-0.0245,-0.2439,0.0000,-0.1829
1595878657,-0.0166,-0.9943,-0.0249,-0.2439,0.0000,-0.1220
1595878657,-0.0148,-0.9924,-0.0248,-0.3049,-0.0610,-0.0610
1595878657,-0.0173,-0.9913,-0.0244,-0.3049,-0.0610,-0.1220
1595878657,-0.0157,-0.9922,-0.0233,-0.2439,-0.0610,-0.0610
1595878657,-0.0177,-0.9922,-0.0227,-0.3049,0.0000,-0.1220
1595878657,-0.0170,-0.9937,-0.0262,-0.3049,0.0000,-0.1220
1595878657,-0.0173,-0.9933,-0.0255,-0.3049,-0.0610,-0.0610
1595878657,-0.0176,-0.9941,-0.0213,-0.2439,0.0000,-0.0610
1595878657,-0.0162,-0.9946,-0.0227,-0.2439,0.0000,-0.1220
1595878657,-0.0148,-0.9926,-0.0249,-0.3049,-0.0610,-0.1220
1595878657,-0.0197,-0.9916,-0.0229,-0.3049,0.0000,-0.0610
1595878657,-0.0184,-0.9949,-0.0254,-0.2439,0.0000,-0.0610
1595878657,-0.0182,-0.9944,-0.0264,-0.2439,0.0000,-0.0610
1595878657,-0.0175,-0.9927,-0.0256,-0.1829,-0.0610,-0.0610
1595878657,-0.0174,-0.9948,-0.0239,-0.1829,-0.0610,0.0000
1595878657,-0.0164,-0.9929,-0.0231,-0.3049,0.0000,-0.0610
1595878657,-0.0160,-0.9921,-0.0222,-0.2439,0.0000,-0.1220
1595878657,-0.0159,-0.9929,-0.0240,-0.2439,-0.0610,-0.0610
1595878657,-0.0179,-0.9937,-0.0233,-0.1829,-0.0610,-0.0610
1595878657,-0.0168,-0.9921,-0.0248,-0.1829,0.0000,-0.1220
1595878657,-0.0178,-0.9926,-0.0243,-0.2439,-0.0610,-0.0610
1595878657,-0.0162,-0.9927,-0.0251,-0.2439,-0.0610,-0.1220
1595878657,-0.0175,-0.9929,-0.0255,-0.2439,0.0000,-0.0610
1595878657,-0.0183,-0.9935,-0.0243,-0.2439,0.0000,0.0000
1595878657,-0.0172,-0.9942,-0.0257,-0.2439,-0.0610,0.0000
1595878658,-0.0173,-0.9933,-0.0267,-0.3659,0.0610,0.0000
1595878658,-0.0140,-0.9934,-0.0255,-0.3659,0.0610,-0.1220
1595878658,-0.0154,-0.9929,-0.0244,-0.3049,0.0000,-0.0610
1595878658,-0.0170,-0.9924,-0.0231,-0.3049,0.0610,-0.0610
1595878658,-0.0151,-0.9936,-0.0264,-0.3049,-0.0610,-0.1220
1595878658,-0.0189,-0.9913,-0.0250,-0.3049,-0.0610,-0.1220
1595878658,-0.0199,-0.9905,-0.0252,-0.3049,-0.0610,-0.0610
1595878658,-0.0172,-0.9920,-0.0246,-0.3049,0.0000,-0.0610
1595878658,-0.0189,-0.9948,-0.0236,-0.3049,0.0000,-0.1220
1595878658,-0.0177,-0.9930,-0.0243,-0.2439,-0.1220,-0.1220
1595878658,-0.0181,-0.9922,-0.0235,-0.1829,0.0000,-0.1220
1595878658,-0.0179,-0.9929,-0.0244,-0.3049,0.0610,-0.0610
1595878658,-0.0186,-0.9932,-0.0251,-0.2439,0.0000,-0.0610
1595878658,-0.0183,-0.9927,-0.0246,-0.3659,-0.0610,-0.1220
1595878658,-0.0170,-0.9921,-0.0221,-0.3049,-0.0610,-0.1220
1595878658,-0.0175,-0.9935,-0.0253,-0.2439,-0.1220,0.0000
1595878658,-0.0178,-0.9949,-0.0250,-0.2439,-0.0610,-0.0610
1595878658,-0.0179,-0.9939,-0.0242,-0.2439,-0.0610,0.0000
1595878658,-0.0159,-0.9931,-0.0237,-0.2439,0.0000,-0.0610
1595878658,-0.0173,-0.9909,-0.0239,-0.1829,0.0000,0.0000
1595878658,-0.0178,-0.9924,-0.0265,-0.3049,0.0000,-0.1220
1595878658,-0.0168,-0.9938,-0.0251,-0.3049,-0.1220,-0.1220
1595878658,-0.0183,-0.9928,-0.0233,-0.2439,-0.0610,-0.0610
1595878658,-0.0176,-0.9923,-0.0244,-0.2439,0.0000,-0.0610
1595878658,-0.0192,-0.9941,-0.0263,-0.3049,-0.0610,-0.0610
1595878658,-0.0179,-0.9943,-0.0256,-0.3049,-0.0610,-0.1220
1595878658,-0.0181,-0.9910,-0.0227,-0.2439,0.0000,-0.1220
1595878658,-0.0193,-0.9927,-0.0245,-0.1829,0.0000,-0.0610
1595878658,-0.0163,-0.9921,-0.0222,-0.2439,0.0000,-0.1220
1595878658,-0.0168,-0.9937,-0.0244,-0.2439,-0.0610,-0.1829
1595878658,-0.0152,-0.9926,-0.0272,-0.2439,-0.0610,-0.1220
1595878658,-0.0177,-0.9919,-0.0240,-0.2439,-0.0610,-0.1220
1595878658,-0.0189,-0.9932,-0.0229,-0.2439,-0.0610,-0.1220
1595878658,-0.0195,-0.9916,-0.0240,-0.3049,0.0000,-0.0610
1595878658,-0.0165,-0.9929,-0.0250,-0.2439,0.0610,0.0000
1595878658,-0.0179,-0.9948,-0.0248,-0.3049,0.0000,0.0000
1595878658,-0.0175,-0.9941,-0.0236,-0.2439,0.0000,-0.1220
1595878658,-0.0171,-0.9916,-0.0248,-0.2439,0.0000,-0.1220
1595878658,-0.0178,-0.9940,-0.0262,-0.3049,-0.0610,-0.1220
1595878658,-0.0169,-0.9935,-0.0229,-0.2439,-0.1220,-0.1220
1595878658,-0.0169,-0.9928,-0.0239,-0.2439,0.0000,0.0000
1595878658,-0.0172,-0.9937,-0.0254,-0.2439,0.0000,-0.0610
1595878658,-0.0181,-0.9927,-0.0248,-0.2439,-0.0610,-0.0610
1595878658,-0.0162,-0.9921,-0.0253,-0.2439,0.0000,-0.1220
1595878658,-0.0167,-0.9931,-0.0246,-0.1829,0.0000,-0.0610
1595878658,-0.0177,-0.9910,-0.0226,-0.2439,0.0610,-0.0610
1595878658,-0.0162,-0.9936,-0.0229,-0.3049,-0.0610,-0.1220
1595878658,-0.0168,-0.9940,-0.0223,-0.3049,-0.1220,-0.1220
1595878658,-0.0193,-0.9923,-0.0255,-0.3659,0.0000,-0.1220
1595878658,-0.0183,-0.9925,-0.0245,-0.1829,0.0000,-0.0610
1595878658,-0.0153,-0.9939,-0.0241,-0.2439,-0.0610,-0.1220
1595878658,-0.0193,-0.9929,-0.0250,-0.2439,0.0000,-0.0610
1595878658,-0.0192,-0.9932,-0.0257,-0.2439,0.0000,-0.0610
1595878658,-0.0182,-0.9930,-0.0257,-0.2439,0.0000,-0.1220
1595878658,-0.0176,-0.9943,-0.0225,-0.3049,-0.0610,-0.0610
1595878658,-0.0172,-0.9928,-0.0249,-0.2439,0.0000,-0.1220
1595878658,-0.0185,-0.9912,-0.0244,-0.2439,-0.0610,-0.0610
1595878658,-0.0176,-0.9928,-0.0239,-0.3049,0.0000,-0.1220
1595878658,-0.0178,-0.9939,-0.0253,-0.3049,-0.0610,0.0000
1595878658,-0.0181,-0.9925,-0.0225,-0.3049,-0.0610,0.0000
1595878658,-0.0173,-0.9926,-0.0235,-0.3049,0.0000,-0.0610
1595878658,-0.0182,-0.9946,-0.0228,-0.3049,-0.0610,-0.0610
1595878658,-0.0203,-0.9931,-0.0243,-0.2439,-0.0610,-0.1220
1595878658,-0.0186,-0.9929,-0.0231,-0.2439,0.0000,-0.1220
1595878658,-0.0172,-0.9941,-0.0231,-0.2439,0.0000,-0.0610
1595878658,-0.0180,-0.9948,-0.0220,-0.3659,0.0000,-0.1220
1595878658,-0.0185,-0.9926,-0.0233,-0.3659,0.0000,-0.1220
1595878658,-0.0174,-0.9917,-0.0244,-0.2439,0.0000,-0.0610
1595878658,-0.0172,-0.9929,-0.0258,-0.1220,0.0000,-0.1220
1595878658,-0.0167,-0.9939,-0.0233,-0.0610,-0.1220,-0.1220
1595878658,-0.0190,-0.9939,-0.0246,-0.1829,-0.0610,-0.1220
1595878658,-0.0176,-0.9926,-0.0275,-0.3049,-0.0610,-0.1220
1595878658,-0.0185,-0.9913,-0.0242,-0.3049,0.0000,-0.1220
1595878658,-0.0188,-0.9929,-0.0238,-0.2439,0.0610,-0.1220
1595878658,-0.0163,-0.9928,-0.0255,-0.3049,-0.0610,-0.0610
1595878658,-0.0194,-0.9920,-0.0243,-0.2439,-0.0610,-0.0610
1595878658,-0.0192,-0.9922,-0.0250,-0.3049,0.1220,-0.1220
1595878658,-0.0171,-0.9923,-0.0238,-0.2439,0.0000,-0.0610
1595878658,-0.0193,-0.9939,-0.0226,-0.2439,-0.1220,-0.0610
1595878658,-0.0185,-0.9935,-0.0222,-0.1829,0.0000,-0.1220
1595878658,-0.0172,-0.9929,-0.0243,-0.3049,-0.0610,-0.0610
1595878658,-0.0175,-0.9924,-0.0228,-0.2439,-0.0610,-0.0610
1595878658,-0.0170,-0.9939,-0.0239,-0.2439,0.0000,-0.1220
1595878658,-0.0180,-0.9930,-0.0254,-0.2439,-0.0610,-0.1220
1595878658,-0.0178,-0.9934,-0.0238,-0.3049,0.0000,-0.1220
1595878658,-0.0167,-0.9932,-0.0253,-0.3049,0.0000,-0.1220
1595878658,-0.0168,-0.9932,-0.0246,-0.2439,-0.0610,-0.1220
1595878658,-0.0166,-0.9924,-0.0223,-0.1829,-0.0610,-0.1220
1595878658,-0.0175,-0.9940,-0.0252,-0.2439,-0.0610,-0.0610
1595878658,-0.0170,-0.9927,-0.0243,-0.3659,0.0000,-0.0610
1595878658,-0.0165,-0.9931,-0.0251,-0.3049,-0.0610,-0.0610
1595878658,-0.0167,-0.9926,-0.0256,-0.2439,-0.0610,-0.0610
1595878658,-0.0175,-0.9925,-0.0223,-0.3049,0.0000,0.0610
1595878658,-0.0183,-0.9927,-0.0219,-0.2439,-0.0610,-0.0610
1595878658,-0.0179,-0.9923,-0.0222,-0.1829,0.0000,-0.0610
1595878658,-0.0173,-0.9933,-0.0255,-0.3049,-0.0610,0.0000
1595878658,-0.0167,-0.9929,-0.0258,-0.2439,0.0000,0.0000
1595878658,-0.0183,-0.9922,-0.0225,-0.2439,-0.0610,-0.1829
1595878658,-0.0171,-0.9924,-0.0246,-0.3049,-0.0610,-0.1220
1595878658,-0.0167,-0.9908,-0.0243,-0.2439,-0.0610,-0.0610
1595878659,-0.0183,-0.9919,-0.0244,-0.2439,-0.0610,-0.0610
1595878659,-0.0164,-0.9922,-0.0214,-0.1829,-0.0610,-0.0610
1595878659,-0.0170,-0.9930,-0.0236,-0.2439,-0.0610,-0.0610
1595878659,-0.0161,-0.9940,-0.0237,-0.3049,-0.0610,-0.0610
1595878659,-0.0155,-0.9945,-0.0231,-0.2439,0.0610,-0.0610
1595878659,-0.0187,-0.9933,-0.0250,-0.1829,0.0000,-0.1220
1595878659,-0.0192,-0.9924,-0.0242,-0.2439,-0.0610,-0.1220
1595878659,-0.0178,-0.9932,-0.0217,-0.2439,0.0000,-0.0610
1595878659,-0.0161,-0.9939,-0.0237,-0.3049,0.0000,-0.0610
1595878659,-0.0170,-0.9944,-0.0256,-0.2439,0.0000,-0.1220
1595878659,-0.0178,-0.9938,-0.0250,-0.2439,0.0610,-0.1220
1595878659,-0.0161,-0.9929,-0.0233,-0.3049,0.0610,-0.0610
1595878659,-0.0159,-0.9935,-0.0237,-0.2439,0.0000,-0.1220
1595878659,-0.0182,-0.9944,-0.0242,-0.1829,-0.1220,-0.1829
1595878659,-0.0172,-0.9917,-0.0262,-0.1829,-0.0610,-0.0610
1595878659,-0.0179,-0.9918,-0.0247,-0.3049,0.0000,-0.0610
1595878659,-0.0181,-0.9938,-0.0254,-0.3659,-0.0610,-0.1220
1595878659,-0.0162,-0.9921,-0.0234,-0.3049,-0.0610,-0.1220
1595878659,-0.0175,-0.9926,-0.0226,-0.3049,0.0610,-0.1220
1595878659,-0.0161,-0.9932,-0.0240,-0.2439,0.0000,-0.1220
1595878659,-0.0171,-0.9916,-0.0244,-0.2439,-0.0610,-0.1220
1595878659,-0.0161,-0.9910,-0.0228,-0.3659,0.0000,-0.0610
1595878659,-0.0167,-0.9935,-0.0230,-0.3049,0.0000,-0.1829
1595878659,-0.0170,-0.9930,-0.0204,-0.2439,-0.0610,-0.1220
1595878659,-0.0164,-0.9926,-0.0225,-0.3049,-0.0610,0.0000
1595878659,-0.0182,-0.9928,-0.0251,-0.3049,0.0000,-0.0610
1595878659,-0.0180,-0.9939,-0.0231,-0.1829,0.0000,-0.0610
1595878659,-0.0172,-0.9930,-0.0231,-0.2439,0.0610,0.0000
1595878659,-0.0168,-0.9929,-0.0250,-0.2439,-0.0610,0.0000
1595878659,-0.0172,-0.9933,-0.0248,-0.1829,0.0000,-0.1220
1595878659,-0.0170,-0.9933,-0.0258,-0.2439,-0.0610,-0.1220
1595878659,-0.0160,-0.9923,-0.0247,-0.1829,0.0000,-0.1220
1595878659,-0.0167,-0.9929,-0.0268,-0.1829,-0.0610,-0.1220
1595878659,-0.0187,-0.9946,-0.0232,-0.2439,-0.0610,-0.0610
1595878659,-0.0189,-0.9935,-0.0231,-0.2439,-0.0610,-0.0610
1595878659,-0.0185,-0.9922,-0.0234,-0.3049,-0.0610,-0.1220
1595878659,-0.0171,-0.9916,-0.0229,-0.3049,-0.0610,-0.0610
1595878659,-0.0167,-0.9942,-0.0235,-0.3049,-0.1220,0.0000
1595878659,-0.0168,-0.9936,-0.0239,-0.2439,-0.0610,-0.1220
1595878659,-0.0173,-0.9953,-0.0245,-0.3049,-0.0610,-0.0610
1595878659,-0.0173,-0.9932,-0.0236,-0.2439,-0.0610,-0.0610
1595878659,-0.0193,-0.9923,-0.0249,-0.2439,-0.1220,-0.0610
1595878659,-0.0182,-0.9924,-0.0247,-0.3049,0.0000,-0.1220
1595878659,-0.0184,-0.9927,-0.0237,-0.3049,0.0000,-0.0610
1595878659,-0.0172,-0.9926,-0.0240,-0.3049,-0.0610,-0.1220
1595878659,-0.0170,-0.9911,-0.0226,-0.2439,-0.0610,-0.0610
1595878659,-0.0184,-0.9924,-0.0246,-0.3049,0.0000,-0.0610
1595878659,-0.0168,-0.9913,-0.0212,-0.2439,0.0610,-0.1220
1595878659,-0.0161,-0.9938,-0.0217,-0.3049,0.0000,-0.0610
1595878659,-0.0178,-0.9925,-0.0246,-0.3049,-0.1220,-0.1220
1595878659,-0.0186,-0.9937,-0.0238,-0.2439,-0.0610,-0.1220
1595878659,-0.0184,-0.9937,-0.0251,-0.3049,-0.0610,-0.1220
1595878659,-0.0192,-0.9938,-0.0231,-0.1829,0.0610,-0.0610
1595878659,-0.0170,-0.9941,-0.0243,-0.2439,0.0610,-0.0610
1595878659,-0.0196,-0.9941,-0.0265,-0.1829,-0.1220,-0.0610
1595878659,-0.0192,-0.9940,-0.0244,-0.1829,-0.0610,-0.0610
1595878659,-0.0168,-0.9924,-0.0248,-0.2439,0.0000,-0.0610
1595878659,-0.0172,-0.9933,-0.0247,-0.2439,-0.0610,-0.0610
1595878659,-0.0181,-0.9928,-0.0249,-0.3049,-0.0610,-0.0610
1595878659,-0.0187,-0.9933,-0.0267,-0.3659,-0.0610,0.0000
1595878659,-0.0176,-0.9912,-0.0245,-0.2439,0.0000,0.0000
1595878659,-0.0179,-0.9938,-0.0237,-0.2439,0.0000,-0.0610
1595878659,-0.0175,-0.9932,-0.0228,-0.3049,-0.0610,-0.1829
1595878659,-0.0179,-0.9933,-0.0238,-0.2439,-0.1220,-0.1220
1595878659,-0.0156,-0.9921,-0.0229,-0.2439,0.0000,-0.1220
1595878659,-0.0173,-0.9935,-0.0225,-0.3049,-0.0610,-0.0610
1595878659,-0.0163,-0.9915,-0.0242,-0.3049,0.0000,-0.0610
1595878659,-0.0165,-0.9917,-0.0238,-0.2439,0.0000,-0.0610
1595878659,-0.0187,-0.9911,-0.0247,-0.3049,-0.0610,-0.0610
1595878659,-0.0183,-0.9933,-0.0253,-0.2439,-0.0610,-0.0610
1595878659,-0.0176,-0.9944,-0.0235,-0.2439,-0.0610,-0.1220
1595878659,-0.0170,-0.9939,-0.0246,-0.3049,-0.0610,-0.1220
1595878659,-0.0169,-0.9937,-0.0231,-0.2439,0.0000,-0.0610
1595878659,-0.0171,-0.9910,-0.0252,-0.1829,-0.0610,-0.1220
1595878659,-0.0162,-0.9920,-0.0250,-0.2439,0.0000,-0.0610
1595878659,-0.0175,-0.9923,-0.0241,-0.3049,0.0000,-0.0610
1595878659,-0.0170,-0.9927,-0.0247,-0.3049,-0.1220,-0.1220
1595878659,-0.0179,-0.9944,-0.0248,-0.2439,0.0610,-0.0610
1595878659,-0.0167,-0.9930,-0.0257,-0.1829,0.0000,-0.0610
1595878659,-0.0173,-0.9929,-0.0234,-0.2439,-0.0610,-0.0610
1595878659,-0.0174,-0.9931,-0.0241,-0.2439,-0.0610,0.0000
1595878659,-0.0162,-0.9924,-0.0250,-0.2439,-0.0610,0.0000
1595878659,-0.0162,-0.9918,-0.0233,-0.2439,0.0000,-0.0610
1595878659,-0.0159,-0.9935,-0.0242,-0.2439,0.0610,-0.1220
1595878659,-0.0173,-0.9930,-0.0249,-0.1829,-0.0610,-0.0610
1595878659,-0.0173,-0.9944,-0.0245,-0.1829,-0.1220,-0.0610
1595878659,-0.0179,-0.9917,-0.0263,-0.2439,-0.1220,-0.1220
1595878659,-0.0173,-0.9913,-0.0248,-0.2439,-0.0610,-0.1220
1595878659,-0.0172,-0.9941,-0.0242,-0.1829,0.0000,-0.0610
1595878659,-0.0150,-0.9944,-0.0228,-0.2439,-0.0610,-0.0610
1595878659,-0.0175,-0.9935,-0.0271,-0.2439,-0.0610,-0.0610
1595878659,-0.0180,-0.9951,-0.0266,-0.2439,-0.0610,0.0000
1595878659,-0.0192,-0.9946,-0.0214,-0.1829,0.0000,-0.0610
1595878659,-0.0153,-0.9941,-0.0249,-0.2439,-0.0610,-0.1220
1595878659,-0.0158,-0.9937,-0.0238,-0.3049,-0.0610,-0.1220
1595878659,-0.0164,-0.9931,-0.0226,-0.3049,-0.0610,-0.0610
1595878659,-0.0193,-0.9919,-0.0232,-0.2439,-0.0610,-0.0610
1595878659,-0.0180,-0.9932,-0.0236,-0.2439,0.0610,-0.1829
1595878659,-0.0167,-0.9935,-0.0236,-0.3049,0.0000,-0.1220
1595878659,-0.0164,-0.9926,-0.0246,-0.2439,0.0000,-0.1220
1595878659,-0.0180,-0.9936,-0.0229,-0.2439,0.0610,-0.0610
1595878659,-0.0176,-0.9932,-0.0234,-0.2439,0.0000,-0.1220
1595878660,-0.0166,-0.9921,-0.0248,-0.3049,0.0000,-0.1220
1595878660,-0.0186,-0.9945,-0.0228,-0.2439,-0.0610,-0.0610
1595878660,-0.0179,-0.9930,-0.0229,-0.2439,0.0000,-0.0610
1595878660,-0.0194,-0.9915,-0.0233,-0.3659,-0.0610,-0.1829
1595878660,-0.0173,-0.9921,-0.0250,-0.3049,-0.0610,-0.1829
1595878660,-0.0170,-0.9923,-0.0238,-0.2439,-0.0610,-0.1220
1595878660,-0.0162,-0.9930,-0.0233,-0.2439,0.0000,-0.1220
1595878660,-0.0167,-0.9930,-0.0228,-0.2439,-0.0610,-0.0610
1595878660,-0.0204,-0.9932,-0.0244,-0.2439,0.0000,-0.0610
1595878660,-0.0189,-0.9941,-0.0250,-0.2439,0.0000,-0.0610
1595878660,-0.0172,-0.9916,-0.0270,-0.2439,0.0000,0.0000
1595878660,-0.0168,-0.9919,-0.0250,-0.3049,0.0000,-0.1220
1595878660,-0.0167,-0.9939,-0.0254,-0.3049,0.0000,-0.0610
1595878660,-0.0156,-0.9941,-0.0218,-0.3049,0.0000,-0.1220
1595878660,-0.0160,-0.9929,-0.0226,-0.3049,0.0000,-0.0610
1595878660,-0.0174,-0.9930,-0.0237,-0.3049,-0.0610,-0.0610
1595878660,-0.0182,-0.9933,-0.0239,-0.3049,-0.0610,-0.0610
1595878660,-0.0172,-0.9938,-0.0237,-0.1829,0.0000,-0.0610
1595878660,-0.0172,-0.9920,-0.0240,-0.2439,-0.0610,0.0000
1595878660,-0.0197,-0.9911,-0.0242,-0.3049,-0.0610,-0.1220
1595878660,-0.0194,-0.9926,-0.0237,-0.2439,-0.0610,-0.0610
1595878660,-0.0186,-0.9930,-0.0231,-0.2439,-0.0610,-0.1220
1595878660,-0.0171,-0.9924,-0.0219,-0.3049,-0.0610,-0.1829
1595878660,-0.0168,-0.9929,-0.0266,-0.3049,0.0610,-0.0610
1595878660,-0.0181,-0.9920,-0.0243,-0.3049,0.0000,-0.0610
1595878660,-0.0171,-0.9926,-0.0237,-0.2439,0.0610,-0.1220
1595878660,-0.0159,-0.9933,-0.0240,-0.2439,0.0610,-0.1220
1595878660,-0.0168,-0.9928,-0.0237,-0.2439,0.0610,-0.1220
1595878660,-0.0195,-0.9922,-0.0234,-0.2439,0.0000,-0.0610
1595878660,-0.0187,-0.9943,-0.0230,-0.2439,0.0000,-0.0610
1595878660,-0.0173,-0.9930,-0.0229,-0.3049,0.0000,-0.0610
1595878660,-0.0163,-0.9902,-0.0242,-0.3049,0.0610,-0.1220
1595878660,-0.0165,-0.9919,-0.0248,-0.2439,0.0610,-0.1220
1595878660,-0.0178,-0.9936,-0.0250,-0.3049,-0.0610,-0.1220
1595878660,-0.0178,-0.9940,-0.0238,-0.3049,-0.0610,-0.0610
1595878660,-0.0143,-0.9929,-0.0244,-0.1829,-0.0610,0.0000
1595878660,-0.0170,-0.9918,-0.0230,-0.2439,0.0000,-0.0610
1595878660,-0.0184,-0.9935,-0.0241,-0.2439,-0.0610,-0.0610
1595878660,-0.0161,-0.9938,-0.0266,-0.2439,-0.0610,-0.1220
1595878660,-0.0168,-0.9907,-0.0229,-0.3659,-0.0610,-0.1220
1595878660,-0.0172,-0.9915,-0.0231,-0.2439,-0.0610,-0.0610
1595878660,-0.0164,-0.9928,-0.0255,-0.2439,-0.0610,-0.1220
1595878660,-0.0168,-0.9926,-0.0256,-0.3049,0.0610,-0.1220
1595878660,-0.0165,-0.9948,-0.0225,-0.2439,0.0000,-0.0610
1595878660,-0.0170,-0.9933,-0.0228,-0.2439,-0.0610,-0.1220
1595878660,-0.0188,-0.9920,-0.0226,-0.3049,0.0000,-0.1220
1595878660,-0.0162,-0.9932,-0.0223,-0.2439,0.0000,-0.1220
1595878660,-0.0182,-0.9951,-0.0252,-0.3049,0.0610,-0.1220
1595878660,-0.0178,-0.9948,-0.0229,-0.3049,0.0000,-0.0610
1595878660,-0.0168,-0.9941,-0.0222,-0.2439,-0.0610,-0.0610
1595878660,-0.0166,-0.9923,-0.0236,-0.3049,-0.0610,-0.1220
1595878660,-0.0181,-0.9920,-0.0236,-0.2439,0.0000,-0.0610
1595878660,-0.0172,-0.9926,-0.0246,-0.2439,0.0000,-0.1829
1595878660,-0.0185,-0.9932,-0.0245,-0.1829,0.0000,0.0000
1595878660,-0.0202,-0.9924,-0.0222,-0.2439,-0.0610,0.0000
1595878660,-0.0181,-0.9919,-0.0219,-0.1829,-0.0610,-0.0610
1595878660,-0.0166,-0.9930,-0.0235,-0.3049,-0.0610,-0.0610
1595878660,-0.0161,-0.9940,-0.0228,-0.3049,-0.0610,0.0000
1595878660,-0.0165,-0.9943,-0.0218,-0.3659,-0.0610,-0.1220
1595878660,-0.0179,-0.9935,-0.0240,-0.2439,0.0610,-0.0610
1595878660,-0.0190,-0.9933,-0.0250,-0.1220,0.1220,0.0000
1595878660,-0.0181,-0.9928,-0.0231,-0.1829,0.0000,-0.0610
1595878660,-0.0174,-0.9914,-0.0229,-0.2439,-0.0610,-0.0610
1595878660,-0.0170,-0.9923,-0.0253,-0.3049,-0.0610,-0.0610
1595878660,-0.0166,-0.9930,-0.0240,-0.3049,-0.0610,0.0000
1595878660,-0.0182,-0.9939,-0.0221,-0.2439,0.0610,-0.1220
1595878660,-0.0196,-0.9938,-0.0229,-0.1829,0.0000,-0.1220
1595878660,-0.0183,-0.9930,-0.0240,-0.1829,0.0000,-0.1220
1595878660,-0.0173,-0.9929,-0.0229,-0.1829,-0.1220,-0.1220
1595878660,-0.0165,-0.9940,-0.0239,-0.1220,-0.1220,-0.0610
1595878660,-0.0172,-0.9934,-0.0251,-0.2439,-0.0610,0.0610
1595878660,-0.0153,-0.9949,-0.0247,-0.3049,0.0000,-0.0610
1595878660,-0.0164,-0.9914,-0.0232,-0.3049,-0.0610,-0.1220
1595878660,-0.0171,-0.9930,-0.0247,-0.3049,-0.0610,-0.1220
1595878660,-0.0160,-0.9928,-0.0225,-0.1829,0.0000,0.0000
1595878660,-0.0173,-0.9928,-0.0245,-0.1829,0.0000,-0.0610
1595878660,-0.0174,-0.9936,-0.0247,-0.1829,-0.0610,-0.1220
1595878660,-0.0182,-0.9919,-0.0218,-0.2439,0.0000,-0.0610
1595878660,-0.0153,-0.9937,-0.0262,-0.3049,0.0000,0.0000
1595878660,-0.0168,-0.9944,-0.0249,-0.3049,0.0000,-0.0610
1595878660,-0.0178,-0.9923,-0.0247,-0.3049,-0.0610,-0.1220
1595878660,-0.0176,-0.9940,-0.0240,-0.3049,-0.0610,0.0000
1595878660,-0.0175,-0.9929,-0.0232,-0.1829,0.0000,0.0000
1595878660,-0.0179,-0.9919,-0.0249,-0.1829,-0.0610,-0.1220
1595878660,-0.0162,-0.9940,-0.0239,-0.1829,-0.0610,-0.1220
1595878660,-0.0157,-0.9933,-0.0257,-0.2439,-0.0610,-0.1220
1595878660,-0.0180,-0.9923,-0.0232,-0.2439,-0.0610,-0.0610
1595878660,-0.0173,-0.9949,-0.0233,-0.2439,0.0000,-0.0610
1595878660,-0.0167,-0.9932,-0.0229,-0.3659,0.0000,-0.1220
1595878660,-0.0162,-0.9944,-0.0236,-0.3049,-0.0610,-0.1220
1595878660,-0.0183,-0.9944,-0.0259,-0.1829,0.0000,-0.0610
1595878660,-0.0164,-0.9926,-0.0227,-0.2439,-0.0610,-0.0610
1595878660,-0.0176,-0.9924,-0.0225,-0.3049,0.0000,-0.1220
1595878660,-0.0163,-0.9928,-0.0226,-0.3659,-0.0610,-0.1829
1595878660,-0.0156,-0.9933,-0.0242,-0.3049,-0.0610,0.0000
1595878660,-0.0146,-0.9918,-0.0250,-0.1829,0.0610,0.0000
1595878660,-0.0151,-0.9930,-0.0250,-0.2439,-0.0610,-0.1220
1595878660,-0.0173,-0.9930,-0.0233,-0.2439,-0.0610,-0.1220
1595878660,-0.0189,-0.9926,-0.0245,-0.2439,0.0000,-0.0610
1595878660,-0.0174,-0.9932,-0.0242,-0.3049,0.0610,-0.1220
1595878660,-0.0163,-0.9941,-0.0239,-0.3049,0.0000,-0.1829
1595878660,-0.0170,-0.9936,-0.0234,-0.3049,0.0000,-0.1220
1595878661,-0.0166,-0.9940,-0.0226,-0.3049,0.0000,-0.0610
1595878661,-0.0161,-0.9925,-0.0212,-0.1220,0.0610,0.0000
1595878661,-0.0174,-0.9920,-0.0233,-0.2439,-0.0610,0.0000
1595878661,-0.0185,-0.9934,-0.0244,-0.2439,0.0000,-0.1220
1595878661,-0.0172,-0.9947,-0.0220,-0.2439,0.0610,-0.0610
1595878661,-0.0168,-0.9937,-0.0244,-0.1829,0.0000,-0.1220
1595878661,-0.0178,-0.9951,-0.0237,-0.2439,0.0610,-0.1220
1595878661,-0.0164,-0.9937,-0.0223,-0.3049,0.0610,-0.1220
1595878661,-0.0181,-0.9916,-0.0247,-0.3049,-0.0610,-0.1220
1595878661,-0.0157,-0.9926,-0.0246,-0.3049,0.0000,-0.0610
1595878661,-0.0172,-0.9944,-0.0223,-0.2439,0.0000,-0.0610
1595878661,-0.0170,-0.9956,-0.0233,-0.2439,0.0000,-0.0610
1595878661,-0.0179,-0.9953,-0.0238,-0.2439,0.0000,0.0000
1595878661,-0.0154,-0.9923,-0.0250,-0.3049,0.0610,0.0000
1595878661,-0.0164,-0.9932,-0.0239,-0.3049,0.0610,-0.1829
1595878661,-0.0158,-0.9928,-0.0223,-0.2439,-0.0610,-0.0610
1595878661,-0.0161,-0.9924,-0.0245,-0.2439,-0.0610,-0.1829
1595878661,-0.0171,-0.9919,-0.0249,-0.2439,-0.0610,0.0610
1595878661,-0.0177,-0.9924,-0.0240,-0.2439,-0.0610,0.0000
1595878661,-0.0178,-0.9922,-0.0234,-0.2439,-0.0610,-0.1220
1595878661,-0.0193,-0.9918,-0.0255,-0.3049,-0.0610,-0.0610
1595878661,-0.0182,-0.9925,-0.0243,-0.3659,-0.0610,-0.0610
1595878661,-0.0175,-0.9937,-0.0239,-0.3049,0.0000,-0.1220
1595878661,-0.0172,-0.9943,-0.0248,-0.3049,0.0000,-0.0610
1595878661,-0.0166,-0.9923,-0.0229,-0.2439,0.0000,-0.0610
1595878661,-0.0157,-0.9930,-0.0221,-0.3049,0.0000,0.0000
1595878661,-0.0159,-0.9951,-0.0221,-0.3049,-0.0610,-0.0610
1595878661,-0.0187,-0.9937,-0.0219,-0.3049,0.0000,-0.1829
1595878661,-0.0173,-0.9922,-0.0216,-0.2439,0.0610,-0.1220
1595878661,-0.0179,-0.9931,-0.0236,-0.3049,0.0000,-0.1220
1595878661,-0.0175,-0.9916,-0.0240,-0.3659,-0.0610,-0.0610
1595878661,-0.0140,-0.9939,-0.0246,-0.2439,-0.0610,-0.0610
1595878661,-0.0170,-0.9940,-0.0244,-0.3049,-0.0610,-0.0610
1595878661,-0.0172,-0.9927,-0.0233,-0.3049,0.0000,-0.1220
1595878661,-0.0182,-0.9929,-0.0210,-0.3049,0.0610,-0.0610
1595878661,-0.0176,-0.9922,-0.0219,-0.2439,-0.0610,-0.1220
1595878661,-0.0165,-0.9937,-0.0234,-0.1829,-0.0610,-0.0610
1595878661,-0.0163,-0.9918,-0.0247,-0.3049,0.0000,-0.0610
1595878661,-0.0161,-0.9910,-0.0247,-0.3659,-0.0610,-0.1220
1595878661,-0.0165,-0.9935,-0.0247,-0.2439,0.0000,-0.0610
1595878661,-0.0156,-0.9927,-0.0248,-0.2439,0.0000,-0.0610
1595878661,-0.0182,-0.9938,-0.0236,-0.2439,0.0000,-0.1829
1595878661,-0.0150,-0.9924,-0.0223,-0.3659,-0.0610,-0.1220
1595878661,-0.0187,-0.9945,-0.0224,-0.3049,-0.0610,-0.0610
1595878661,-0.0179,-0.9931,-0.0228,-0.3049,0.0000,-0.1220
1595878661,-0.0159,-0.9919,-0.0256,-0.2439,-0.0610,-0.0610
1595878661,-0.0167,-0.9927,-0.0258,-0.2439,-0.0610,-0.0610
1595878661,-0.0184,-0.9919,-0.0245,-0.2439,-0.0610,0.0000
1595878661,-0.0172,-0.9918,-0.0229,-0.2439,0.0000,-0.0610
1595878661,-0.0160,-0.9921,-0.0230,-0.3049,-0.0610,-0.0610
1595878661,-0.0179,-0.9935,-0.0234,-0.3659,0.0000,-0.0610
1595878661,-0.0159,-0.9933,-0.0237,-0.2439,-0.0610,-0.1220
1595878661,-0.0185,-0.9934,-0.0261,-0.3049,-0.0610,0.0000
1595878661,-0.0174,-0.9908,-0.0227,-0.3049,-0.0610,0.0000
1595878661,-0.0157,-0.9924,-0.0252,-0.2439,0.0000,-0.0610
1595878661,-0.0166,-0.9941,-0.0260,-0.3049,0.0000,-0.1220
1595878661,-0.0172,-0.9929,-0.0264,-0.2439,-0.0610,-0.0610
1595878661,-0.0156,-0.9949,-0.0242,-0.1829,-0.1220,-0.0610
1595878661,-0.0172,-0.9938,-0.0237,-0.2439,-0.1220,-0.1220
1595878661,-0.0179,-0.9949,-0.0234,-0.3049,0.0610,-0.1220
1595878661,-0.0172,-0.9924,-0.0231,-0.2439,0.0000,-0.0610
1595878661,-0.0172,-0.9946,-0.0244,-0.1829,-0.0610,-0.1220
1595878661,-0.0187,-0.9942,-0.0244,-0.2439,0.0000,-0.1220
1595878661,-0.0148,-0.9942,-0.0229,-0.3049,0.0610,-0.0610
1595878661,-0.0160,-0.9922,-0.0228,-0.3659,0.0000,0.0000
1595878661,-0.0167,-0.9929,-0.0251,-0.2439,-0.0610,-0.0610
1595878661,-0.0151,-0.9931,-0.0242,-0.2439,-0.0610,-0.0610
1595878661,-0.0184,-0.9921,-0.0244,-0.2439,0.0000,-0.0610
1595878661,-0.0196,-0.9929,-0.0234,-0.1829,-0.0610,-0.0610
1595878661,-0.0173,-0.9926,-0.0226,-0.2439,-0.0610,-0.1220
1595878661,-0.0160,-0.9942,-0.0244,-0.3049,0.0610,-0.1220
1595878661,-0.0172,-0.9938,-0.0214,-0.3049,-0.0610,-0.1220
1595878661,-0.0172,-0.9944,-0.0247,-0.3049,-0.0610,-0.0610
1595878661,-0.0164,-0.9941,-0.0256,-0.3049,-0.1220,0.0000
1595878661,-0.0179,-0.9935,-0.0240,-0.3049,-0.0610,-0.0610
1595878661,-0.0172,-0.9933,-0.0236,-0.2439,0.0000,-0.1220
1595878661,-0.0165,-0.9954,-0.0221,-0.2439,0.0000,-0.0610
1595878661,-0.0182,-0.9947,-0.0237,-0.1829,-0.1220,-0.0610
1595878661,-0.0173,-0.9932,-0.0251,-0.2439,0.0000,-0.0610
1595878661,-0.0162,-0.9921,-0.0251,-0.1829,0.0610,-0.1220
1595878661,-0.0177,-0.9934,-0.0235,-0.2439,0.0000,-0.0610
1595878661,-0.0176,-0.9933,-0.0243,-0.3049,-0.0610,-0.1220
1595878661,-0.0186,-0.9924,-0.0253,-0.2439,-0.0610,-0.1829
1595878661,-0.0173,-0.9958,-0.0249,-0.2439,-0.0610,-0.1220
1595878661,-0.0152,-0.9956,-0.0232,-0.4268,-0.1220,0.0000
1595878661,-0.0159,-0.9921,-0.0259,-0.2439,0.0000,-0.0610
1595878661,-0.0169,-0.9910,-0.0242,-0.1829,0.0000,-0.0610
1595878661,-0.0156,-0.9942,-0.0258,-0.2439,0.0000,-0.0610
1595878661,-0.0184,-0.9935,-0.0243,-0.3049,-0.0610,-0.0610
1595878661,-0.0181,-0.9917,-0.0246,-0.2439,-0.0610,-0.1220
1595878661,-0.0173,-0.9954,-0.0242,-0.2439,0.0000,-0.1220
1595878661,-0.0175,-0.9939,-0.0247,-0.3049,0.0000,0.0000
1595878661,-0.0163,-0.9930,-0.0240,-0.2439,-0.0610,-0.0610
1595878661,-0.0151,-0.9940,-0.0226,-0.2439,0.0000,-0.1220
1595878661,-0.0153,-0.9940,-0.0251,-0.3049,0.0000,-0.1220
1595878661,-0.0173,-0.9944,-0.0243,-0.1829,-0.0610,0.0000
1595878661,-0.0167,-0.9932,-0.0231,-0.2439,0.0000,-0.0610
1595878661,-0.0175,-0.9957,-0.0233,-0.3049,0.0610,-0.1220
1595878661,-0.0167,-0.9943,-0.0233,-0.3049,0.0000,0.0000
1595878661,-0.0167,-0.9924,-0.0244,-0.3049,-0.0610,-0.0610
1595878661,-0.0169,-0.9936,-0.0242,-0.2439,-0.0610,-0.1220
1595878661,-0.0174,-0.9917,-0.0218,-0.2439,-0.0610,-0.1220
1595878662,-0.0164,-0.9921,-0.0235,-0.1220,0.0000,-0.0610
1595878662,-0.0172,-0.9929,-0.0250,-0.2439,0.0000,-0.0610
1595878662,-0.0177,-0.9926,-0.0262,-0.2439,-0.0610,-0.0610
1595878662,-0.0169,-0.9951,-0.0228,-0.1829,-0.0610,-0.0610
1595878662,-0.0187,-0.9940,-0.0252,-0.3659,0.0000,-0.1220
1595878662,-0.0184,-0.9933,-0.0245,-0.3659,-0.0610,-0.1829
1595878662,-0.0160,-0.9933,-0.0228,-0.1829,-0.0610,-0.1829
1595878662,-0.0185,-0.9917,-0.0230,-0.1829,0.0000,-0.1220
1595878662,-0.0167,-0.9939,-0.0247,-0.2439,-0.0610,-0.0610
1595878662,-0.0159,-0.9943,-0.0248,-0.3049,-0.1220,-0.0610
1595878662,-0.0192,-0.9948,-0.0243,-0.3049,0.0000,-0.0610
1595878662,-0.0185,-0.9938,-0.0239,-0.2439,0.0000,-0.0610
1595878662,-0.0167,-0.9938,-0.0224,-0.2439,0.0000,-0.0610
1595878662,-0.0182,-0.9916,-0.0236,-0.2439,0.0000,-0.0610
1595878662,-0.0192,-0.9926,-0.0242,-0.3049,-0.0610,-0.0610
1595878662,-0.0173,-0.9943,-0.0229,-0.3049,-0.0610,-0.1220
1595878662,-0.0161,-0.9929,-0.0229,-0.3049,-0.1220,-0.1220
1595878662,-0.0150,-0.9945,-0.0248,-0.2439,-0.0610,-0.1220
1595878662,-0.0177,-0.9946,-0.0247,-0.2439,-0.0610,-0.0610
1595878662,-0.0162,-0.9929,-0.0259,-0.3049,0.0000,-0.0610
1595878662,-0.0181,-0.9930,-0.0240,-0.2439,0.0000,-0.0610
1595878662,-0.0187,-0.9927,-0.0226,-0.2439,-0.0610,-0.0610
1595878662,-0.0173,-0.9937,-0.0255,-0.2439,-0.0610,-0.0610
1595878662,-0.0170,-0.9943,-0.0228,-0.3049,-0.0610,-0.1220
1595878662,-0.0168,-0.9937,-0.0214,-0.3049,-0.0610,-0.1220
1595878662,-0.0172,-0.9922,-0.0266,-0.2439,-0.0610,-0.1220
1595878662,-0.0159,-0.9925,-0.0266,-0.1829,0.0000,-0.1220
1595878662,-0.0173,-0.9932,-0.0255,-0.3049,0.0000,-0.1220
1595878662,-0.0170,-0.9947,-0.0229,-0.3049,-0.0610,-0.1220
1595878662,-0.0167,-0.9940,-0.0211,-0.3049,-0.0610,0.0000
1595878662,-0.0162,-0.9929,-0.0225,-0.3049,-0.0610,0.0000
1595878662,-0.0185,-0.9937,-0.0222,-0.2439,0.0000,-0.1829
1595878662,-0.0190,-0.9952,-0.0260,-0.2439,0.0610,-0.1220
1595878662,-0.0169,-0.9934,-0.0236,-0.2439,-0.0610,-0.1220
1595878662,-0.0181,-0.9923,-0.0245,-0.2439,0.0000,-0.0610
1595878662,-0.0156,-0.9932,-0.0240,-0.3049,0.0000,-0.0610
1595878662,-0.0153,-0.9938,-0.0251,-0.1829,0.0610,-0.1829
1595878662,-0.0182,-0.9951,-0.0251,-0.2439,0.0000,-0.1220
1595878662,-0.0168,-0.9928,-0.0243,-0.3049,0.0000,0.0000
1595878662,-0.0165,-0.9944,-0.0237,-0.3049,0.0000,0.0000
1595878662,-0.0163,-0.9952,-0.0237,-0.3659,-0.0610,-0.1220
1595878662,-0.0170,-0.9933,-0.0232,-0.2439,0.0000,-0.1220
1595878662,-0.0172,-0.9939,-0.0235,-0.1829,0.0000,-0.0610
1595878662,-0.0186,-0.9916,-0.0246,-0.3049,0.0000,-0.0610
1595878662,-0.0196,-0.9938,-0.0223,-0.2439,0.0610,-0.1220
1595878662,-0.0151,-0.9936,-0.0263,-0.2439,0.0000,-0.0610
1595878662,-0.0170,-0.9926,-0.0233,-0.2439,0.0000,-0.1220
1595878662,-0.0180,-0.9940,-0.0240,-0.3659,0.0000,-0.0610
1595878662,-0.0157,-0.9927,-0.0260,-0.3049,-0.0610,-0.1220
1595878662,-0.0186,-0.9921,-0.0215,-0.1829,-0.0610,-0.1220
1595878662,-0.0170,-0.9922,-0.0223,-0.3049,-0.0610,-0.0610
1595878662,-0.0154,-0.9926,-0.0244,-0.3659,0.0000,-0.0610
1595878662,-0.0148,-0.9926,-0.0253,-0.3049,0.0000,-0.1220
1595878662,-0.0177,-0.9943,-0.0266,-0.3049,0.0000,-0.1220
1595878662,-0.0183,-0.9921,-0.0243,-0.2439,-0.0610,-0.1220
1595878662,-0.0167,-0.9898,-0.0241,-0.2439,-0.0610,0.0000
1595878662,-0.0171,-0.9922,-0.0255,-0.1829,0.0610,0.0000
1595878662,-0.0170,-0.9941,-0.0236,-0.3049,0.0610,-0.1220
1595878662,-0.0159,-0.9952,-0.0260,-0.2439,0.0000,-0.1220
1595878662,-0.0178,-0.9954,-0.0248,-0.2439,-0.0610,-0.0610
1595878662,-0.0172,-0.9937,-0.0242,-0.3049,-0.1220,-0.0610
1595878662,-0.0167,-0.9943,-0.0245,-0.2439,-0.0610,-0.0610
1595878662,-0.0179,-0.9943,-0.0247,-0.1829,0.0000,-0.1220
1595878662,-0.0151,-0.9944,-0.0256,-0.2439,0.0000,-0.1220
1595878662,-0.0178,-0.9941,-0.0248,-0.2439,-0.0610,-0.0610
1595878662,-0.0174,-0.9932,-0.0237,-0.3049,0.0000,-0.0610
1595878662,-0.0189,-0.9912,-0.0224,-0.3049,0.0000,-0.1220
1595878662,-0.0179,-0.9919,-0.0255,-0.3049,0.0000,-0.1220
1595878662,-0.0163,-0.9912,-0.0252,-0.3659,0.0000,-0.0610
1595878662,-0.0176,-0.9922,-0.0222,-0.3049,0.0000,-0.1220
1595878662,-0.0187,-0.9922,-0.0223,-0.3049,0.0000,-0.0610
1595878662,-0.0170,-0.9935,-0.0235,-0.3049,-0.0610,0.0000
1595878662,-0.0171,-0.9953,-0.0213,-0.1829,-0.1220,-0.1220
1595878662,-0.0172,-0.9925,-0.0219,-0.2439,-0.0610,-0.0610
1595878662,-0.0179,-0.9938,-0.0247,-0.3049,0.0000,0.0000
1595878662,-0.0168,-0.9922,-0.0240,-0.2439,0.0000,0.0000
1595878662,-0.0180,-0.9935,-0.0250,-0.2439,-0.0610,-0.0610
1595878662,-0.0166,-0.9936,-0.0248,-0.3049,-0.0610,-0.0610
1595878662,-0.0168,-0.9930,-0.0236,-0.2439,0.0000,-0.0610
1595878662,-0.0173,-0.9904,-0.0244,-0.1829,0.0610,-0.0610
1595878662,-0.0167,-0.9943,-0.0218,-0.2439,-0.0610,-0.0610
1595878662,-0.0162,-0.9932,-0.0218,-0.2439,0.0000,-0.0610
1595878662,-0.0162,-0.9937,-0.0231,-0.2439,-0.0610,-0.1220
1595878662,-0.0189,-0.9948,-0.0266,-0.2439,-0.0610,-0.0610
1595878662,-0.0165,-0.9931,-0.0263,-0.3049,0.0000,-0.0610
1595878662,-0.0178,-0.9935,-0.0228,-0.2439,-0.0610,-0.0610
1595878662,-0.0170,-0.9918,-0.0247,-0.1829,-0.0610,-0.0610
1595878662,-0.0154,-0.9929,-0.0259,-0.2439,0.0000,-0.1220
1595878662,-0.0175,-0.9934,-0.0229,-0.3049,0.0000,-0.1829
1595878662,-0.0165,-0.9942,-0.0221,-0.3049,0.0000,-0.1829
1595878662,-0.0189,-0.9938,-0.0236,-0.1829,0.0000,-0.1220
1595878662,-0.0165,-0.9946,-0.0244,-0.3659,0.0000,-0.1220
1595878662,-0.0177,-0.9932,-0.0247,-0.3049,-0.0610,0.0000
1595878662,-0.0176,-0.9927,-0.0225,-0.2439,-0.0610,0.0000
1595878662,-0.0175,-0.9921,-0.0214,-0.2439,0.0000,-0.1829
1595878662,-0.0179,-0.9931,-0.0237,-0.2439,0.0000,-0.0610
1595878662,-0.0186,-0.9918,-0.0242,-0.1829,-0.0610,0.0000
1595878662,-0.0166,-0.9933,-0.0242,-0.2439,0.0000,0.0000
1595878662,-0.0150,-0.9937,-0.0243,-0.1829,0.0000,-0.0610
1595878662,-0.0156,-0.9924,-0.0229,-0.2439,-0.0610,-0.1220
1595878662,-0.0161,-0.9938,-0.0230,-0.3049,-0.0610,-0.1220
1595878662,-0.0178,-0.9923,-0.0231,-0.3049,0.0000,-0.0610
1595878663,-0.0194,-0.9934,-0.0233,-0.3049,-0.0610,-0.0610
1595878663,-0.0160,-0.9940,-0.0240,-0.2439,-0.0610,-0.1220
1595878663,-0.0158,-0.9938,-0.0239,-0.3659,-0.0610,-0.1220
1595878663,-0.0181,-0.9938,-0.0228,-0.3049,0.0000,-0.0610
1595878663,-0.0179,-0.9935,-0.0251,-0.2439,-0.0610,-0.1220
1595878663,-0.0179,-0.9918,-0.0253,-0.2439,-0.1220,-0.0610
1595878663,-0.0184,-0.9937,-0.0239,-0.2439,-0.0610,-0.0610
1595878663,-0.0170,-0.9933,-0.0246,-0.2439,0.0000,-0.0610
1595878663,-0.0174,-0.9942,-0.0234,-0.2439,0.0000,0.0000
1595878663,-0.0154,-0.9964,-0.0225,-0.3049,-0.0610,-0.0610
1595878663,-0.0158,-0.9935,-0.0237,-0.3049,-0.0610,-0.1220
1595878663,-0.0168,-0.9917,-0.0271,-0.2439,0.0000,-0.1220
1595878663,-0.0172,-0.9932,-0.0242,-0.3049,0.0000,-0.0610
1595878663,-0.0169,-0.9924,-0.0238,-0.2439,0.0610,-0.0610
1595878663,-0.0186,-0.9930,-0.0245,-0.3049,0.0000,-0.0610
1595878663,-0.0175,-0.9918,-0.0256,-0.2439,-0.0610,-0.0610
1595878663,-0.0165,-0.9930,-0.0247,-0.3049,0.0610,0.0000
1595878663,-0.0161,-0.9929,-0.0244,-0.2439,0.0610,-0.1220
1595878663,-0.0155,-0.9921,-0.0244,-0.3659,-0.0610,-0.0610
1595878663,-0.0166,-0.9921,-0.0253,-0.3049,-0.0610,-0.0610
1595878663,-0.0158,-0.9861,-0.0569,-0.2439,0.0000,-0.1220
1595878663,-0.0068,-1.0048,-0.0425,-0.1829,0.1220,-0.3659
1595878663,-0.0043,-1.0029,0.0258,-0.3049,0.3049,-2.2561
1595878663,-0.0334,-0.9818,0.0054,-0.1829,-0.1220,0.4268
1595878663,-0.0323,-0.9758,-0.0208,-0.0610,-0.4268,4.2683
1595878663,-0.0316,-1.0107,-0.0254,-0.2439,-0.1220,-0.1829
1595878663,-0.0252,-0.9821,-0.0345,-0.2439,0.0000,-1.4634
1595878663,-0.0125,-0.9784,-0.0320,-0.3049,-0.0610,0.1220
1595878663,0.0035,-1.0059,-0.0111,-0.3659,0.1220,-1.7683
1595878663,-0.0034,-1.0025,-0.0186,-0.3659,0.1829,-3.1098
1595878663,-0.0231,-0.9934,-0.0528,-0.1829,-0.1829,0.7317
1595878663,-0.0170,-0.9892,-0.0491,-0.0610,-0.2439,2.3780
1595878663,-0.0167,-1.0096,-0.0187,-0.3049,0.1220,-0.7317
1595878663,-0.0222,-0.9822,-0.0050,-0.2439,0.1220,-0.2439
1595878663,-0.0216,-0.9780,-0.0100,-0.1829,-0.1220,1.6463
1595878663,-0.0142,-1.0021,-0.0108,-0.3659,-0.0610,-0.0610
1595878663,-0.0181,-0.9952,-0.0201,-0.3049,0.0610,-1.6463
1595878663,-0.0239,-0.9822,-0.0365,-0.1829,-0.0610,0.6707
1595878663,-0.0107,-0.9889,-0.0330,-0.1829,-0.0610,0.6707
1595878663,-0.0060,-1.0134,-0.0131,-0.3049,0.1220,-2.3171
1595878663,-0.0219,-0.9911,-0.0167,-0.3049,0.0000,-0.7927
1595878663,-0.0295,-0.9807,-0.0352,-0.1220,-0.3049,2.5610
1595878663,-0.0151,-0.9991,-0.0305,-0.2439,-0.1220,0.9146
1595878663,-0.0108,-0.9999,-0.0226,-0.3659,0.1220,-2.1951
1595878663,-0.0158,-0.9831,-0.0287,-0.3049,0.0610,-0.5488
1595878663,-0.0099,-0.9887,-0.0276,-0.1829,-0.1220,0.9146
1595878663,-0.0067,-1.0079,-0.0127,-0.3049,0.0000,-0.9756
1595878663,-0.0228,-0.9937,-0.0109,-0.2439,0.0000,-0.5488
1595878663,-0.0281,-0.9813,-0.0188,-0.0610,-0.1829,2.0732
1595878663,-0.0185,-0.9970,-0.0220,-0.2439,-0.0610,0.7317
1595878663,-0.0179,-0.9998,-0.0202,-0.4268,0.1220,-2.0732
1595878663,-0.0234,-0.9857,-0.0362,-0.3049,0.0000,-0.3049
1595878663,-0.0191,-0.9866,-0.0425,-0.2439,-0.1829,1.3415
1595878663,-0.0101,-1.0029,-0.0219,-0.3659,0.0000,-0.8537
1595878663,-0.0094,-0.9971,-0.0136,-0.3049,0.1220,-1.7683
1595878663,-0.0114,-0.9838,-0.0247,-0.2439,0.0000,0.4268
1595878663,-0.0114,-0.9987,-0.0273,-0.1829,0.0610,0.3659
1595878663,-0.0146,-1.0016,-0.0224,-0.2439,0.1220,-0.8537
1595878663,-0.0308,-0.9867,-0.0201,-0.1220,0.0000,0.9756
1595878663,-0.0319,-0.9813,-0.0152,-0.1220,-0.2439,2.3780
1595878663,-0.0189,-0.9996,-0.0108,-0.3659,0.0610,-0.3049
1595878663,-0.0162,-0.9976,-0.0224,-0.4268,0.1829,-1.9512
1595878663,-0.0174,-0.9834,-0.0434,-0.2439,-0.0610,-0.1829
1595878663,-0.0104,-0.9988,-0.0427,-0.3049,-0.1829,0.1220
1595878663,-0.0054,-1.0042,-0.0257,-0.3659,0.0000,-1.3415
1595878663,-0.0121,-0.9923,-0.0173,-0.3049,0.0000,-0.6707
1595878663,-0.0139,-0.9883,-0.0165,-0.1829,0.0000,1.0366
1595878663,-0.0156,-0.9987,-0.0175,-0.1829,0.0000,0.2439
1595878663,-0.0261,-0.9935,-0.0303,-0.1829,0.0000,-0.2439
1595878663,-0.0305,-0.9824,-0.0353,-0.1829,-0.1220,1.1585
1595878663,-0.0220,-0.9929,-0.0226,-0.1829,-0.0610,0.6707
1595878663,-0.0160,-0.9997,-0.0082,-0.2439,0.1220,-1.0976
1595878663,-0.0140,-0.9916,-0.0178,-0.3049,0.0000,-0.9146
1595878663,-0.0115,-0.9924,-0.0343,-0.2439,-0.1220,0.0000
1595878663,-0.0119,-0.9996,-0.0358,-0.1829,-0.0610,-0.6098
1595878663,-0.0153,-0.9922,-0.0316,-0.2439,-0.0610,-0.5488
1595878663,-0.0176,-0.9858,-0.0231,-0.1220,-0.1220,0.7317
1595878663,-0.0153,-0.9935,-0.0131,-0.2439,-0.0610,0.4878
1595878663,-0.0161,-0.9992,-0.0147,-0.3049,0.0000,-0.6707
1595878663,-0.0224,-0.9898,-0.0239,-0.3049,-0.1220,-0.0610
1595878663,-0.0233,-0.9916,-0.0305,-0.1829,-0.1220,0.7317
1595878663,-0.0182,-1.0009,-0.0259,-0.1220,0.0000,-0.2439
1595878663,-0.0184,-0.9968,-0.0192,-0.2439,0.0610,-0.6707
1595878663,-0.0203,-0.9889,-0.0200,-0.3049,0.0000,0.3659
1595878663,-0.0178,-0.9940,-0.0233,-0.3049,-0.0610,0.2439
1595878663,-0.0128,-0.9941,-0.0289,-0.3049,0.0610,-0.6707
1595878663,-0.0139,-0.9912,-0.0352,-0.2439,0.0000,-0.3659
1595878663,-0.0106,-0.9946,-0.0291,-0.2439,0.0000,-0.0610
1595878663,-0.0109,-1.0012,-0.0157,-0.3659,0.1220,-0.7317
1595878663,-0.0239,-0.9967,-0.0118,-0.2439,0.0610,0.2439
1595878663,-0.0295,-0.9838,-0.0140,-0.1220,-0.1829,1.7683
1595878663,-0.0220,-0.9943,-0.0231,-0.2439,-0.1220,0.8537
1595878663,-0.0111,-0.9927,-0.0326,-0.3659,0.0000,-1.1585
1595878663,-0.0131,-0.9950,-0.0359,-0.3049,0.0610,-1.4634
1595878663,-0.0146,-0.9919,-0.0263,-0.2439,-0.1220,0.0610
1595878663,-0.0141,-0.9994,-0.0170,-0.2439,-0.1220,0.1829
1595878663,-0.0153,-0.9966,-0.0183,-0.3049,-0.0610,-0.1220
1595878663,-0.0187,-0.9894,-0.0242,-0.2439,-0.0610,0.0610
1595878663,-0.0199,-0.9929,-0.0255,-0.2439,-0.0610,0.3659
1595878664,-0.0197,-0.9912,-0.0220,-0.2439,0.0000,-0.0610
1595878664,-0.0175,-0.9905,-0.0258,-0.2439,0.0000,-0.1220
1595878664,-0.0179,-0.9896,-0.0216,-0.1829,-0.0610,0.1220
1595878664,-0.0170,-1.0021,-0.0152,-0.3659,0.0000,-0.3659
1595878664,-0.0165,-0.9951,-0.0222,-0.3049,0.0000,-0.4878
1595878664,-0.0224,-0.9908,-0.0314,-0.3049,-0.0610,0.2439
1595878664,-0.0149,-0.9988,-0.0272,-0.3049,0.0000,-0.1220
1595878664,-0.0164,-0.9941,-0.0247,-0.2439,0.0000,-0.6098
1595878664,-0.0198,-0.9829,-0.0250,-0.1829,-0.0610,0.3659
1595878664,-0.0145,-0.9902,-0.0227,-0.1829,-0.0610,0.6098
1595878664,-0.0124,-1.0010,-0.0227,-0.3659,0.0000,-0.6707
1595878664,-0.0146,-0.9911,-0.0309,-0.3049,0.0000,-0.7317
1595878664,-0.0172,-0.9918,-0.0289,-0.2439,-0.1220,0.1829
1595878664,-0.0197,-0.9973,-0.0203,-0.2439,0.0000,0.2439
1595878664,-0.0213,-0.9948,-0.0113,-0.2439,0.0610,-0.1829
1595878664,-0.0236,-0.9908,-0.0159,-0.1829,0.0000,0.4268
1595878664,-0.0203,-0.9906,-0.0189,-0.3659,0.0000,0.3659
1595878664,-0.0195,-0.9943,-0.0255,-0.3659,0.0610,-0.4878
1595878664,-0.0192,-0.9879,-0.0342,-0.2439,0.0000,-0.1220
1595878664,-0.0140,-0.9926,-0.0315,-0.2439,-0.0610,0.0610
1595878664,-0.0071,-1.0002,-0.0181,-0.3049,0.0000,-0.7927
1595878664,-0.0114,-0.9988,-0.0162,-0.3049,0.0610,-0.9756
1595878664,-0.0165,-0.9884,-0.0247,-0.2439,-0.0610,0.5488
1595878664,-0.0171,-0.9939,-0.0281,-0.2439,-0.1220,0.6098
1595878664,-0.0192,-0.9990,-0.0225,-0.3049,0.0610,-0.4878
1595878664,-0.0292,-0.9846,-0.0220,-0.1829,0.0610,0.4268
1595878664,-0.0266,-0.9865,-0.0204,-0.1829,-0.1220,1.4024
1595878664,-0.0135,-0.9983,-0.0157,-0.3049,0.0000,-0.2439
1595878664,-0.0138,-0.9990,-0.0199,-0.3659,0.0610,-1.7073
1595878664,-0.0151,-0.9890,-0.0316,-0.3659,-0.0610,-0.3049
1595878664,-0.0099,-0.9947,-0.0331,-0.1829,-0.0610,0.3049
1595878664,-0.0078,-1.0017,-0.0261,-0.3049,0.0610,-1.0366
1595878664,-0.0182,-0.9914,-0.0236,-0.3049,0.0610,-0.4878
1595878664,-0.0229,-0.9860,-0.0220,-0.1829,-0.1220,1.4634
1595878664,-0.0225,-0.9948,-0.0184,-0.1829,-0.1220,0.8537
1595878664,-0.0241,-0.9954,-0.0205,-0.2439,0.0610,-0.6098
1595878664,-0.0236,-0.9857,-0.0286,-0.3049,0.0000,0.0000
1595878664,-0.0139,-0.9915,-0.0270,-0.2439,-0.0610,0.1220
1595878664,-0.0086,-1.0011,-0.0155,-0.3049,0.0000,-1.1585
1595878664,-0.0154,-0.9930,-0.0183,-0.3049,-0.0610,-0.7317
1595878664,-0.0153,-0.9872,-0.0294,-0.1829,-0.0610,0.7317
1595878664,-0.0139,-0.9973,-0.0289,-0.2439,0.0000,0.0610
1595878664,-0.0178,-0.9958,-0.0285,-0.3659,0.0610,-0.7317
1595878664,-0.0235,-0.9860,-0.0326,-0.1829,-0.1220,0.4268
1595878664,-0.0198,-0.9918,-0.0257,-0.1220,-0.1220,0.7927
1595878664,-0.0134,-1.0001,-0.0129,-0.3049,0.0000,-0.6098
1595878664,-0.0210,-0.9908,-0.0166,-0.3049,0.0000,-0.4878
1595878664,-0.0233,-0.9861,-0.0274,-0.2439,-0.1220,0.7927
1595878664,-0.0164,-0.9958,-0.0253,-0.3049,-0.0610,-0.1829
1595878664,-0.0137,-0.9987,-0.0232,-0.3659,0.0610,-1.2805
1595878664,-0.0204,-0.9875,-0.0258,-0.3049,-0.1220,0.1829
1595878664,-0.0174,-0.9879,-0.0222,-0.1220,-0.1220,1.0366
1595878664,-0.0120,-0.9984,-0.0197,-0.3049,0.0000,-0.6707
1595878664,-0.0155,-0.9946,-0.0256,-0.3659,0.0000,-0.9146
1595878664,-0.0184,-0.9870,-0.0323,-0.2439,-0.1220,0.6098
1595878664,-0.0137,-0.9971,-0.0261,-0.1829,0.0000,0.2439
1595878664,-0.0145,-0.9990,-0.0179,-0.3049,0.1220,-0.7927
1595878664,-0.0231,-0.9863,-0.0228,-0.2439,0.0000,0.3049
1595878664,-0.0201,-0.9857,-0.0261,-0.1220,-0.1829,1.2195
1595878664,-0.0159,-0.9975,-0.0206,-0.3049,-0.0610,-0.4268
1595878664,-0.0218,-0.9925,-0.0236,-0.3049,0.0000,-0.8537
1595878664,-0.0231,-0.9836,-0.0315,-0.1829,-0.0610,0.4878
1595878664,-0.0143,-0.9953,-0.0251,-0.2439,0.0000,0.1829
1595878664,-0.0115,-1.0006,-0.0154,-0.3049,0.0610,-1.2195
1595878664,-0.0150,-0.9903,-0.0260,-0.2439,0.0000,-0.4268
1595878664,-0.0143,-0.9900,-0.0308,-0.1220,0.0000,0.7927
1595878664,-0.0117,-0.9987,-0.0275,-0.2439,0.0000,-0.3659
1595878664,-0.0175,-0.9943,-0.0261,-0.3049,0.0000,-0.6707
1595878664,-0.0228,-0.9868,-0.0227,-0.3049,0.0000,0.8537
1595878664,-0.0208,-0.9927,-0.0160,-0.1829,-0.0610,0.8537
1595878664,-0.0201,-0.9989,-0.0115,-0.2439,0.0000,-0.6707
1595878664,-0.0204,-0.9893,-0.0219,-0.3049,-0.0610,-0.4268
1595878664,-0.0166,-0.9880,-0.0306,-0.1829,-0.1220,0.4268
1595878664,-0.0097,-0.9969,-0.0266,-0.3049,-0.0610,-0.4878
1595878664,-0.0119,-0.9957,-0.0109,-0.3659,0.0000,-0.9756
1595878664,-0.0228,-0.9884,-0.0160,-0.2439,-0.0610,0.5488
1595878664,-0.0245,-0.9850,-0.0301,-0.2439,-0.1829,1.2805
1595878664,-0.0176,-0.9980,-0.0321,-0.4268,-0.0610,-0.3049
1595878664,-0.0112,-0.9952,-0.0344,-0.4268,0.0000,-1.1585
1595878664,-0.0095,-0.9910,-0.0341,-0.3049,0.0000,-0.4878
1595878664,-0.0090,-0.9993,-0.0209,-0.2439,0.0000,-0.4878
1595878664,-0.0178,-0.9976,-0.0175,-0.1829,-0.0610,-0.1220
1595878664,-0.0250,-0.9866,-0.0270,-0.1829,-0.1829,1.3415
1595878664,-0.0176,-0.9914,-0.0281,-0.1829,-0.1220,0.6098
1595878664,-0.0173,-0.9987,-0.0195,-0.3049,0.0610,-1.2195
1595878664,-0.0226,-0.9880,-0.0165,-0.3049,0.0000,-0.3659
1595878664,-0.0186,-0.9865,-0.0229,-0.2439,-0.1220,0.9146
1595878664,-0.0110,-0.9998,-0.0229,-0.3049,0.0000,-0.3659
1595878664,-0.0178,-0.9995,-0.0229,-0.3049,0.0610,-1.2805
1595878664,-0.0195,-0.9876,-0.0315,-0.2439,-0.0610,0.3659
1595878664,-0.0158,-0.9915,-0.0324,-0.2439,-0.1220,0.7927
1595878664,-0.0134,-1.0043,-0.0245,-0.3049,0.0000,-0.9146
1595878664,-0.0224,-0.9946,-0.0218,-0.3659,0.0000,-0.4878
1595878664,-0.0248,-0.9824,-0.0229,-0.2439,-0.1829,1.4024
1595878664,-0.0154,-0.9929,-0.0225,-0.2439,-0.0610,0.4268
1595878664,-0.0117,-0.9991,-0.0214,-0.2439,0.1829,-1.5244
1595878664,-0.0184,-0.9902,-0.0258,-0.2439,0.0000,-0.6707
1595878664,-0.0192,-0.9906,-0.0292,-0.1829,-0.1220,0.7317
1595878664,-0.0168,-0.9991,-0.0205,-0.3049,0.0000,0.0000
1595878664,-0.0212,-0.9948,-0.0182,-0.2439,0.0000,-0.3049
1595878664,-0.0223,-0.9879,-0.0257,-0.1829,-0.1220,0.6707
1595878664,-0.0184,-0.9922,-0.0280,-0.2439,-0.0610,0.2439
1595878664,-0.0163,-0.9984,-0.0300,-0.2439,0.0000,-0.9146
1595878665,-0.0161,-0.9897,-0.0267,-0.2439,0.0000,-0.3049
1595878665,-0.0142,-0.9904,-0.0236,-0.3049,-0.1829,0.5488
1595878665,-0.0100,-0.9976,-0.0156,-0.3659,-0.0610,-0.4268
1595878665,-0.0150,-0.9928,-0.0154,-0.3659,0.0610,-0.6707
1595878665,-0.0210,-0.9868,-0.0249,-0.2439,-0.0610,0.4268
1595878665,-0.0189,-0.9935,-0.0305,-0.1829,-0.1220,0.3659
1595878665,-0.0199,-0.9985,-0.0256,-0.2439,0.0000,-0.4268
1595878665,-0.0238,-0.9877,-0.0206,-0.3049,-0.0610,0.2439
1595878665,-0.0200,-0.9879,-0.0205,-0.3049,-0.0610,0.4878
1595878665,-0.0121,-0.9977,-0.0217,-0.3659,0.0000,-0.7927
1595878665,-0.0114,-0.9938,-0.0279,-0.3659,0.0610,-1.0976
1595878665,-0.0165,-0.9900,-0.0345,-0.2439,-0.0610,0.1220
1595878665,-0.0139,-0.9942,-0.0272,-0.2439,-0.1220,0.4268
1595878665,-0.0147,-0.9968,-0.0163,-0.3049,0.0000,-0.3049
1595878665,-0.0205,-0.9902,-0.0139,-0.3659,-0.0610,0.1220
1595878665,-0.0210,-0.9893,-0.0217,-0.2439,-0.1220,0.7927
1595878665,-0.0189,-0.9946,-0.0264,-0.1829,0.0000,0.0610
1595878665,-0.0169,-0.9936,-0.0289,-0.1829,0.0000,-0.5488
1595878665,-0.0173,-0.9917,-0.0289,-0.2439,-0.0610,-0.1829
1595878665,-0.0132,-0.9936,-0.0229,-0.2439,0.0000,-0.1220
1595878665,-0.0121,-0.9963,-0.0185,-0.3659,0.0000,-0.6098
1595878665,-0.0161,-0.9927,-0.0230,-0.3049,0.0000,-0.1829
1595878665,-0.0160,-0.9907,-0.0299,-0.2439,-0.0610,0.3049
1595878665,-0.0159,-0.9935,-0.0283,-0.2439,-0.0610,0.0000
1595878665,-0.0186,-0.9922,-0.0225,-0.3049,0.0000,-0.1220
1595878665,-0.0197,-0.9899,-0.0183,-0.3049,-0.0610,0.1829
1595878665,-0.0156,-0.9934,-0.0189,-0.3049,-0.0610,0.0000
1595878665,-0.0167,-0.9943,-0.0220,-0.2439,-0.0610,-0.3659
1595878665,-0.0189,-0.9915,-0.0273,-0.2439,0.0000,-0.1829
1595878665,-0.0152,-0.9932,-0.0311,-0.2439,0.0000,0.0610
1595878665,-0.0131,-0.9945,-0.0267,-0.2439,0.0000,-0.3659
1595878665,-0.0156,-0.9916,-0.0221,-0.3049,0.0000,-0.2439
1595878665,-0.0179,-0.9916,-0.0215,-0.3049,0.0000,0.3659
1595878665,-0.0170,-0.9943,-0.0203,-0.3049,-0.1220,0.1220
1595878665,-0.0151,-0.9941,-0.0229,-0.3659,-0.0610,-0.3659
1595878665,-0.0175,-0.9933,-0.0258,-0.3049,0.0000,-0.1220
1595878665,-0.0159,-0.9922,-0.0240,-0.2439,0.0000,0.0610
1595878665,-0.0171,-0.9936,-0.0222,-0.2439,0.0000,-0.1829
1595878665,-0.0169,-0.9948,-0.0209,-0.3659,0.0610,0.0000
1595878665,-0.0180,-0.9932,-0.0226,-0.3049,-0.0610,0.2439
1595878665,-0.0168,-0.9946,-0.0251,-0.3049,-0.0610,-0.0610
1595878665,-0.0175,-0.9948,-0.0287,-0.3659,0.0000,-0.4268
1595878665,-0.0179,-0.9920,-0.0267,-0.2439,0.0000,-0.1220
1595878665,-0.0145,-0.9946,-0.0237,-0.2439,0.0610,-0.0610
1595878665,-0.0130,-0.9952,-0.0193,-0.2439,0.0000,-0.3049
1595878665,-0.0146,-0.9932,-0.0223,-0.2439,0.0000,-0.0610
1595878665,-0.0155,-0.9921,-0.0256,-0.1829,0.0000,0.1220
1595878665,-0.0176,-0.9944,-0.0247,-0.3049,0.0000,-0.1829
1595878665,-0.0197,-0.9936,-0.0264,-0.2439,0.0610,-0.0610
1595878665,-0.0234,-0.9913,-0.0227,-0.2439,-0.0610,0.3659
1595878665,-0.0192,-0.9926,-0.0181,-0.3659,-0.0610,0.1829
1595878665,-0.0176,-0.9944,-0.0198,-0.2439,-0.0610,-0.4878
1595878665,-0.0167,-0.9911,-0.0255,-0.2439,-0.1220,-0.2439
1595878665,-0.0139,-0.9924,-0.0295,-0.3049,-0.0610,0.0000
1595878665,-0.0128,-0.9969,-0.0255,-0.3049,0.0000,-0.4268
1595878665,-0.0162,-0.9918,-0.0238,-0.2439,0.0000,-0.3049
1595878665,-0.0189,-0.9885,-0.0226,-0.2439,0.0000,0.4268
1595878665,-0.0203,-0.9933,-0.0208,-0.1829,0.0000,0.3049
1595878665,-0.0197,-0.9941,-0.0228,-0.2439,0.0610,-0.3049
1595878665,-0.0220,-0.9896,-0.0299,-0.3049,0.0610,0.0610
1595878665,-0.0168,-0.9903,-0.0262,-0.2439,-0.0610,0.3049
1595878665,-0.0145,-0.9955,-0.0210,-0.3049,-0.0610,-0.3659
1595878665,-0.0139,-0.9919,-0.0209,-0.2439,0.0610,-0.5488
1595878665,-0.0173,-0.9879,-0.0215,-0.2439,0.0000,0.1829
1595878665,-0.0162,-0.9950,-0.0232,-0.3049,-0.0610,0.0610
1595878665,-0.0157,-0.9953,-0.0269,-0.2439,0.0610,-0.5488
1595878665,-0.0193,-0.9908,-0.0277,-0.1220,-0.0610,-0.0610
1595878665,-0.0179,-0.9896,-0.0228,-0.1829,-0.0610,0.4268
1595878665,-0.0176,-0.9973,-0.0159,-0.3049,0.0610,-0.1220
1595878665,-0.0192,-0.9945,-0.0213,-0.3659,0.0000,-0.3049
1595878665,-0.0195,-0.9885,-0.0286,-0.1829,-0.1220,0.2439
1595878665,-0.0176,-0.9932,-0.0280,-0.1829,-0.1220,0.0610
1595878665,-0.0178,-0.9963,-0.0251,-0.3659,0.0000,-0.6707
1595878665,-0.0193,-0.9905,-0.0231,-0.3049,0.0610,-0.1220
1595878665,-0.0164,-0.9900,-0.0222,-0.2439,-0.0610,0.4268
1595878665,-0.0136,-0.9963,-0.0180,-0.2439,-0.1220,-0.2439
1595878665,-0.0155,-0.9918,-0.0229,-0.1829,-0.0610,-0.5488
1595878665,-0.0193,-0.9875,-0.0306,-0.1220,-0.0610,0.1829
1595878665,-0.0160,-0.9940,-0.0270,-0.3049,-0.0610,0.0610
1595878665,-0.0131,-0.9985,-0.0187,-0.3049,0.0610,-0.5488
1595878665,-0.0204,-0.9915,-0.0195,-0.2439,-0.0610,0.0000
1595878665,-0.0204,-0.9900,-0.0245,-0.2439,-0.1220,0.6098
1595878665,-0.0161,-0.9973,-0.0214,-0.2439,-0.0610,-0.1220
1595878665,-0.0181,-0.9936,-0.0251,-0.3049,0.0000,-0.6707
1595878665,-0.0216,-0.9883,-0.0276,-0.3659,-0.0610,0.2439
1595878665,-0.0161,-0.9933,-0.0239,-0.3049,-0.0610,0.1829
1595878665,-0.0117,-0.9977,-0.0194,-0.3049,-0.0610,-0.6707
1595878665,-0.0153,-0.9896,-0.0215,-0.3049,0.0000,-0.2439
1595878665,-0.0202,-0.9899,-0.0268,-0.1829,-0.0610,0.4878
1595878665,-0.0165,-0.9968,-0.0260,-0.3049,0.0000,-0.1220
1595878665,-0.0181,-0.9954,-0.0241,-0.3049,0.0610,-0.7317
1595878665,-0.0181,-0.9886,-0.0231,-0.3049,-0.0610,0.2439
1595878665,-0.0178,-0.9929,-0.0239,-0.2439,-0.0610,0.6707
1595878665,-0.0182,-1.0000,-0.0195,-0.2439,-0.0610,-0.3659
1595878665,-0.0200,-0.9908,-0.0237,-0.2439,-0.0610,-0.4268
1595878665,-0.0178,-0.9881,-0.0278,-0.1220,0.0000,0.2439
1595878665,-0.0142,-0.9944,-0.0273,-0.2439,0.0000,-0.2439
1595878665,-0.0150,-0.9947,-0.0225,-0.3659,-0.0610,-0.6707
1595878665,-0.0194,-0.9890,-0.0240,-0.3049,-0.0610,0.2439
1595878665,-0.0164,-0.9921,-0.0237,-0.2439,-0.0610,0.4878
1595878665,-0.0131,-0.9978,-0.0224,-0.3049,-0.0610,-0.3659
1595878665,-0.0177,-0.9915,-0.0249,-0.3049,0.0000,-0.3049
1595878666,-0.0200,-0.9888,-0.0281,-0.1829,0.0610,0.4268
1595878666,-0.0159,-0.9937,-0.0208,-0.3049,0.0000,0.0000
1595878666,-0.0175,-0.9951,-0.0162,-0.3659,0.0000,-0.6707
1595878666,-0.0193,-0.9899,-0.0216,-0.3049,0.0000,0.0000
1595878666,-0.0157,-0.9910,-0.0248,-0.2439,-0.0610,0.3049
1595878666,-0.0146,-0.9976,-0.0236,-0.3049,0.0000,-0.6098
1595878666,-0.0170,-0.9941,-0.0269,-0.1829,0.0610,-0.4878
1595878666,-0.0196,-0.9881,-0.0276,-0.1829,-0.0610,0.5488
1595878666,-0.0158,-0.9942,-0.0222,-0.3049,-0.0610,0.1829
1595878666,-0.0178,-0.9964,-0.0170,-0.3659,-0.0610,-0.6098
1595878666,-0.0195,-0.9918,-0.0247,-0.3049,0.0000,-0.0610
1595878666,-0.0193,-0.9893,-0.0293,-0.1829,-0.0610,0.4878
1595878666,-0.0176,-0.9976,-0.0266,-0.3049,0.0610,-0.4268
1595878666,-0.0155,-0.9932,-0.0228,-0.3659,0.1220,-0.6098
1595878666,-0.0176,-0.9872,-0.0214,-0.1829,0.0000,0.3049
1595878666,-0.0168,-0.9944,-0.0209,-0.2439,0.0000,0.1829
1595878666,-0.0154,-0.9988,-0.0220,-0.3659,0.0000,-0.7317
1595878666,-0.0178,-0.9912,-0.0284,-0.3049,-0.0610,-0.3049
1595878666,-0.0182,-0.9897,-0.0294,-0.2439,-0.1220,0.4268
1595878666,-0.0140,-0.9954,-0.0232,-0.3049,0.0000,-0.1220
1595878666,-0.0171,-0.9932,-0.0206,-0.1829,0.0000,-0.5488
1595878666,-0.0217,-0.9897,-0.0193,-0.1220,-0.0610,0.2439
1595878666,-0.0156,-0.9949,-0.0226,-0.2439,-0.0610,0.3049
1595878666,-0.0157,-0.9963,-0.0259,-0.3049,0.0610,-0.4268
1595878666,-0.0190,-0.9908,-0.0269,-0.3049,0.0000,-0.1829
1595878666,-0.0176,-0.9905,-0.0246,-0.2439,-0.0610,0.3659
1595878666,-0.0162,-0.9966,-0.0201,-0.3049,0.0000,-0.2439
1595878666,-0.0167,-0.9948,-0.0212,-0.2439,0.0000,-0.4878
1595878666,-0.0178,-0.9896,-0.0269,-0.1829,-0.0610,0.0610
1595878666,-0.0153,-0.9948,-0.0306,-0.3659,-0.0610,0.0610
1595878666,-0.0131,-0.9960,-0.0259,-0.3659,0.0610,-0.4878
1595878666,-0.0194,-0.9911,-0.0259,-0.3049,0.0000,-0.1829
1595878666,-0.0193,-0.9927,-0.0234,-0.2439,0.0000,0.4878
1595878666,-0.0161,-0.9960,-0.0212,-0.3049,-0.0610,0.0610
1595878666,-0.0173,-0.9932,-0.0208,-0.3659,-0.0610,-0.4878
1595878666,-0.0178,-0.9904,-0.0250,-0.2439,-0.0610,0.1220
1595878666,-0.0167,-0.9918,-0.0266,-0.1829,-0.1220,0.1829
1595878666,-0.0134,-0.9939,-0.0256,-0.2439,0.0000,-0.4268
1595878666,-0.0173,-0.9945,-0.0227,-0.2439,0.1220,-0.2439
1595878666,-0.0209,-0.9918,-0.0259,-0.3049,-0.0610,0.4268
1595878666,-0.0167,-0.9952,-0.0239,-0.3049,-0.0610,0.0610
1595878666,-0.0181,-0.9951,-0.0253,-0.2439,0.0610,-0.4268
1595878666,-0.0198,-0.9903,-0.0262,-0.2439,0.0610,0.0000
1595878666,-0.0177,-0.9924,-0.0258,-0.2439,-0.0610,0.3049
1595878666,-0.0164,-0.9960,-0.0207,-0.1829,-0.0610,-0.1220
1595878666,-0.0170,-0.9957,-0.0176,-0.3659,-0.0610,-0.3049
1595878666,-0.0184,-0.9918,-0.0225,-0.1220,-0.0610,0.1220
1595878666,-0.0182,-0.9925,-0.0276,-0.1829,-0.0610,-0.0610
1595878666,-0.0161,-0.9935,-0.0265,-0.3049,0.0000,-0.4268
1595878666,-0.0172,-0.9924,-0.0248,-0.2439,0.0000,-0.1220
1595878666,-0.0165,-0.9929,-0.0222,-0.2439,-0.0610,0.2439
1595878666,-0.0147,-0.9947,-0.0218,-0.1829,0.0000,-0.1220
1595878666,-0.0174,-0.9930,-0.0221,-0.3049,-0.0610,-0.2439
1595878666,-0.0188,-0.9904,-0.0247,-0.1829,0.0000,0.1220
1595878666,-0.0181,-0.9941,-0.0242,-0.2439,0.0610,0.0610
1595878666,-0.0176,-0.9946,-0.0226,-0.3659,-0.0610,-0.2439
1595878666,-0.0178,-0.9916,-0.0208,-0.3049,-0.1220,-0.0610
1595878666,-0.0175,-0.9914,-0.0217,-0.3049,-0.0610,0.1829
1595878666,-0.0182,-0.9924,-0.0223,-0.1829,0.0000,-0.1220
1595878666,-0.0181,-0.9928,-0.0259,-0.3049,0.0000,-0.3049
1595878666,-0.0154,-0.9926,-0.0271,-0.3049,0.0000,0.0000
1595878666,-0.0164,-0.9940,-0.0242,-0.3049,0.0000,-0.0610
1595878666,-0.0150,-0.9919,-0.0228,-0.3049,0.0610,-0.2439
1595878666,-0.0159,-0.9924,-0.0220,-0.2439,0.0610,-0.1220
1595878666,-0.0174,-0.9933,-0.0220,-0.3049,-0.0610,0.1220
1595878666,-0.0178,-0.9907,-0.0231,-0.3659,-0.0610,0.0000
1595878666,-0.0192,-0.9934,-0.0255,-0.2439,-0.0610,-0.1829
1595878666,-0.0171,-0.9930,-0.0244,-0.1829,0.0610,0.0000
1595878666,-0.0189,-0.9921,-0.0225,-0.2439,0.0000,-0.0610
1595878666,-0.0160,-0.9950,-0.0214,-0.3659,0.0000,-0.2439
1595878666,-0.0159,-0.9921,-0.0229,-0.2439,0.0000,-0.1829
1595878666,-0.0177,-0.9913,-0.0276,-0.2439,0.0610,-0.1220
1595878666,-0.0185,-0.9927,-0.0278,-0.2439,0.0000,-0.1220
1595878666,-0.0172,-0.9945,-0.0245,-0.2439,-0.1220,-0.1829
1595878666,-0.0155,-0.9938,-0.0196,-0.2439,-0.0610,0.0000
1595878666,-0.0175,-0.9941,-0.0208,-0.3659,0.1220,0.0610
1595878666,-0.0189,-0.9940,-0.0251,-0.3659,0.0000,0.0610
1595878666,-0.0169,-0.9918,-0.0265,-0.1829,-0.0610,-0.1220
1595878666,-0.0165,-0.9914,-0.0259,-0.3049,-0.0610,-0.1220
1595878666,-0.0164,-0.9940,-0.0266,-0.2439,0.0000,0.0000
1595878666,-0.0159,-0.9944,-0.0230,-0.2439,0.0000,0.0000
1595878666,-0.0167,-0.9933,-0.0225,-0.3049,-0.0610,-0.1220
1595878666,-0.0161,-0.9925,-0.0242,-0.3049,0.0000,-0.1220
1595878666,-0.0175,-0.9923,-0.0251,-0.2439,0.0000,0.0000
1595878666,-0.0170,-0.9930,-0.0256,-0.3049,0.0610,-0.0610
1595878666,-0.0184,-0.9944,-0.0237,-0.3049,0.0000,-0.1829
1595878666,-0.0190,-0.9929,-0.0227,-0.3049,-0.1220,-0.0610
1595878666,-0.0186,-0.9913,-0.0235,-0.2439,-0.0610,0.1220
1595878666,-0.0159,-0.9927,-0.0225,-0.3049,-0.0610,-0.0610
1595878666,-0.0176,-0.9932,-0.0236,-0.2439,0.0000,-0.3049
1595878666,-0.0170,-0.9924,-0.0265,-0.3049,0.0000,-0.1829
1595878666,-0.0161,-0.9941,-0.0264,-0.3049,-0.0610,-0.0610
1595878666,-0.0171,-0.9958,-0.0204,-0.3049,-0.0610,-0.1220
1595878666,-0.0164,-0.9930,-0.0209,-0.2439,0.0000,-0.1220
1595878666,-0.0166,-0.9915,-0.0237,-0.2439,0.0000,0.1220
1595878666,-0.0189,-0.9946,-0.0256,-0.2439,0.0000,-0.1220
1595878666,-0.0164,-0.9954,-0.0243,-0.3049,0.0000,-0.2439
1595878666,-0.0168,-0.9941,-0.0247,-0.1829,0.0000,-0.0610
1595878666,-0.0164,-0.9946,-0.0211,-0.3049,-0.0610,0.0000
1595878666,-0.0173,-0.9941,-0.0219,-0.3659,-0.0610,-0.1829
1595878666,-0.0188,-0.9898,-0.0208,-0.2439,0.0000,-0.0610
1595878667,-0.0176,-0.9921,-0.0251,-0.3049,-0.0610,0.0610
1595878667,-0.0169,-0.9951,-0.0288,-0.3659,0.0000,-0.1829
1595878667,-0.0174,-0.9916,-0.0267,-0.3049,0.0610,-0.3049
1595878667,-0.0172,-0.9904,-0.0228,-0.3049,-0.1220,0.0000
1595878667,-0.0161,-0.9925,-0.0217,-0.3049,-0.1220,0.1220
1595878667,-0.0151,-0.9950,-0.0215,-0.3049,0.0000,-0.1220
1595878667,-0.0190,-0.9931,-0.0242,-0.3049,0.0000,-0.1829
1595878667,-0.0183,-0.9909,-0.0262,-0.1829,0.0000,0.1220
1595878667,-0.0160,-0.9954,-0.0253,-0.3049,0.0000,0.0610
1595878667,-0.0165,-0.9930,-0.0206,-0.3659,0.0000,-0.3049
1595878667,-0.0168,-0.9914,-0.0201,-0.3049,-0.0610,-0.0610
1595878667,-0.0172,-0.9919,-0.0236,-0.2439,-0.0610,0.1829
1595878667,-0.0162,-0.9957,-0.0248,-0.3659,-0.0610,-0.2439
1595878667,-0.0168,-0.9933,-0.0256,-0.2439,-0.0610,-0.4268
1595878667,-0.0168,-0.9921,-0.0255,-0.2439,-0.0610,0.1220
1595878667,-0.0174,-0.9933,-0.0234,-0.3049,-0.0610,0.1220
1595878667,-0.0170,-0.9939,-0.0225,-0.2439,-0.0610,-0.2439
1595878667,-0.0175,-0.9910,-0.0226,-0.2439,0.0000,-0.1220
1595878667,-0.0167,-0.9916,-0.0269,-0.2439,0.0000,0.1829
1595878667,-0.0170,-0.9950,-0.0246,-0.2439,-0.0610,-0.1220
1595878667,-0.0162,-0.9944,-0.0236,-0.3049,0.0610,-0.3049
1595878667,-0.0177,-0.9930,-0.0249,-0.3049,0.0000,0.0000
1595878667,-0.0172,-0.9945,-0.0251,-0.2439,-0.0610,0.0610
1595878667,-0.0140,-0.9936,-0.0209,-0.3049,0.0000,-0.2439
1595878667,-0.0166,-0.9933,-0.0258,-0.2439,-0.0610,-0.2439
1595878667,-0.0178,-0.9921,-0.0272,-0.3049,0.0610,0.1220
1595878667,-0.0166,-0.9947,-0.0231,-0.3659,0.0000,-0.1829
1595878667,-0.0168,-0.9944,-0.0223,-0.3659,0.0000,-0.3659
1595878667,-0.0192,-0.9894,-0.0231,-0.2439,0.0610,0.1220
1595878667,-0.0171,-0.9920,-0.0219,-0.1829,-0.0610,0.1829
1595878667,-0.0164,-0.9944,-0.0236,-0.2439,-0.0610,-0.3049
1595878667,-0.0170,-0.9904,-0.0243,-0.3049,0.0000,-0.3049
1595878667,-0.0182,-0.9915,-0.0272,-0.3659,-0.0610,0.1220
1595878667,-0.0159,-0.9951,-0.0236,-0.1829,0.0000,-0.0610
1595878667,-0.0150,-0.9939,-0.0195,-0.2439,-0.0610,-0.3049
1595878667,-0.0179,-0.9938,-0.0243,-0.1829,0.0000,0.0000
1595878667,-0.0164,-0.9911,-0.0264,-0.2439,0.0000,0.1829
1595878667,-0.0161,-0.9944,-0.0247,-0.3049,0.0000,-0.3659
1595878667,-0.0183,-0.9937,-0.0246,-0.2439,-0.0610,-0.3659
1595878667,-0.0173,-0.9915,-0.0233,-0.1829,-0.1220,0.3049
1595878667,-0.0168,-0.9933,-0.0217,-0.2439,0.0610,0.1220
1595878667,-0.0189,-0.9940,-0.0206,-0.3659,0.0610,-0.2439
1595878667,-0.0186,-0.9915,-0.0241,-0.3049,0.0000,0.0610
1595878667,-0.0162,-0.9928,-0.0267,-0.3659,-0.0610,0.1829
1595878667,-0.0159,-0.9971,-0.0236,-0.3049,-0.0610,-0.2439
1595878667,-0.0168,-0.9948,-0.0236,-0.2439,-0.0610,-0.3049
1595878667,-0.0170,-0.9922,-0.0271,-0.3049,-0.0610,0.1829
1595878667,-0.0170,-0.9932,-0.0226,-0.2439,-0.0610,0.0610
1595878667,-0.0181,-0.9961,-0.0234,-0.3049,-0.0610,-0.3659
1595878667,-0.0175,-0.9935,-0.0244,-0.2439,0.0000,-0.0610
1595878667,-0.0186,-0.9939,-0.0267,-0.2439,-0.0610,0.2439
1595878667,-0.0160,-0.9973,-0.0244,-0.3049,-0.0610,-0.1220
1595878667,-0.0181,-0.9952,-0.0210,-0.3049,-0.0610,-0.2439
1595878667,-0.0204,-0.9924,-0.0217,-0.2439,-0.1220,0.1220
1595878667,-0.0180,-0.9916,-0.0247,-0.1829,-0.0610,0.0610
1595878667,-0.0157,-0.9943,-0.0272,-0.3049,0.0000,-0.4268
1595878667,-0.0156,-0.9910,-0.0251,-0.3659,0.0000,-0.2439
1595878667,-0.0150,-0.9928,-0.0236,-0.1829,-0.1220,0.1829
1595878667,-0.0168,-0.9954,-0.0219,-0.2439,0.0000,-0.1220
1595878667,-0.0175,-0.9951,-0.0220,-0.3049,0.0000,-0.3049
1595878667,-0.0180,-0.9919,-0.0256,-0.2439,-0.0610,0.0000
1595878667,-0.0173,-0.9919,-0.0271,-0.3049,0.0000,0.0610
1595878667,-0.0163,-0.9963,-0.0264,-0.3049,0.0610,-0.3659
1595878667,-0.0179,-0.9942,-0.0240,-0.2439,-0.0610,-0.1829
1595878667,-0.0167,-0.9913,-0.0213,-0.3049,-0.0610,0.1829
1595878667,-0.0138,-0.9936,-0.0233,-0.3659,0.0610,-0.0610
1595878667,-0.0155,-0.9936,-0.0239,-0.2439,0.0610,-0.2439
1595878667,-0.0173,-0.9905,-0.0252,-0.2439,0.0000,-0.1220
1595878667,-0.0152,-0.9933,-0.0257,-0.3049,0.0000,0.0000
1595878667,-0.0167,-0.9947,-0.0237,-0.2439,-0.0610,-0.2439
1595878667,-0.0161,-0.9922,-0.0209,-0.3049,-0.0610,-0.1829
1595878667,-0.0172,-0.9903,-0.0244,-0.3049,-0.0610,0.1829
1595878667,-0.0157,-0.9951,-0.0250,-0.3049,-0.0610,0.0000
1595878667,-0.0170,-0.9938,-0.0245,-0.3049,0.0610,-0.3049
1595878667,-0.0190,-0.9916,-0.0236,-0.2439,0.0000,-0.0610
1595878667,-0.0186,-0.9899,-0.0243,-0.2439,0.0610,0.2439
1595878667,-0.0187,-0.9926,-0.0226,-0.2439,0.0610,-0.1829
1595878667,-0.0159,-0.9939,-0.0237,-0.2439,0.0610,-0.3049
1595878667,-0.0181,-0.9905,-0.0249,-0.2439,0.0610,0.0610
1595878667,-0.0182,-0.9929,-0.0250,-0.2439,-0.0610,0.0610
1595878667,-0.0171,-0.9943,-0.0248,-0.2439,-0.0610,-0.2439
1595878667,-0.0176,-0.9928,-0.0226,-0.2439,0.0000,-0.1220
1595878667,-0.0181,-0.9943,-0.0242,-0.1829,0.0000,0.0610
1595878667,-0.0175,-0.9949,-0.0222,-0.1829,0.0000,0.0000
1595878667,-0.0168,-0.9926,-0.0237,-0.1829,0.0000,-0.2439
1595878667,-0.0184,-0.9931,-0.0275,-0.2439,0.0000,-0.1220
1595878667,-0.0193,-0.9940,-0.0236,-0.3049,0.0000,-0.0610
1595878667,-0.0175,-0.9945,-0.0222,-0.3049,-0.0610,-0.1829
1595878667,-0.0175,-0.9925,-0.0229,-0.2439,-0.0610,-0.1220
1595878667,-0.0164,-0.9938,-0.0255,-0.3659,0.0000,0.0000
1595878667,-0.0150,-0.9946,-0.0245,-0.3659,0.0000,-0.1220
1595878667,-0.0162,-0.9944,-0.0233,-0.3049,-0.0610,-0.1829
1595878667,-0.0192,-0.9937,-0.0255,-0.2439,-0.0610,-0.0610
1595878667,-0.0168,-0.9918,-0.0250,-0.2439,0.0000,0.0000
1595878667,-0.0154,-0.9936,-0.0203,-0.3049,0.0000,-0.1829
1595878667,-0.0165,-0.9930,-0.0190,-0.2439,-0.0610,-0.0610
1595878667,-0.0169,-0.9914,-0.0241,-0.2439,-0.1829,0.0610
1595878667,-0.0162,-0.9924,-0.0245,-0.3049,0.0000,-0.1220
1595878667,-0.0146,-0.9944,-0.0244,-0.3049,0.0000,-0.2439
1595878667,-0.0153,-0.9936,-0.0233,-0.3049,0.0000,-0.1220
1595878668,-0.0168,-0.9921,-0.0230,-0.2439,0.0000,0.0610
1595878668,-0.0156,-0.9929,-0.0245,-0.3049,0.0000,-0.0610
1595878668,-0.0179,-0.9943,-0.0244,-0.3049,-0.0610,-0.1829
1595878668,-0.0179,-0.9927,-0.0259,-0.2439,-0.0610,-0.0610
1595878668,-0.0172,-0.9925,-0.0249,-0.1829,-0.0610,0.0000
1595878668,-0.0164,-0.9930,-0.0258,-0.2439,0.0610,-0.0610
1595878668,-0.0178,-0.9922,-0.0236,-0.3049,-0.0610,-0.0610
1595878668,-0.0164,-0.9924,-0.0226,-0.2439,-0.1220,0.0610
1595878668,-0.0178,-0.9939,-0.0239,-0.1829,0.0000,0.0000
1595878668,-0.0161,-0.9924,-0.0248,-0.2439,0.0000,-0.1829
1595878668,-0.0154,-0.9938,-0.0255,-0.2439,0.0000,-0.1829
1595878668,-0.0181,-0.9936,-0.0255,-0.2439,-0.1220,-0.0610
1595878668,-0.0172,-0.9946,-0.0234,-0.1829,0.0000,0.0000
1595878668,-0.0167,-0.9929,-0.0221,-0.3049,0.0000,-0.0610
1595878668,-0.0160,-0.9930,-0.0239,-0.1829,0.0000,-0.1220
1595878668,-0.0153,-0.9942,-0.0246,-0.1829,0.0000,-0.0610
1595878668,-0.0168,-0.9948,-0.0236,-0.3049,0.0000,-0.0610
1595878668,-0.0177,-0.9929,-0.0236,-0.2439,0.0610,-0.0610
1595878668,-0.0168,-0.9913,-0.0226,-0.2439,-0.0610,0.0610
1595878668,-0.0187,-0.9937,-0.0237,-0.3049,-0.0610,0.0000
1595878668,-0.0182,-0.9919,-0.0231,-0.3049,0.0000,-0.1220
1595878668,-0.0175,-0.9937,-0.0261,-0.3049,-0.0610,-0.1829
1595878668,-0.0175,-0.9924,-0.0256,-0.2439,-0.0610,-0.0610
1595878668,-0.0148,-0.9937,-0.0233,-0.1220,-0.1220,-0.0610
1595878668,-0.0161,-0.9937,-0.0227,-0.3049,0.0000,-0.1220
1595878668,-0.0187,-0.9904,-0.0234,-0.3049,0.0000,-0.0610
1595878668,-0.0181,-0.9918,-0.0243,-0.3049,-0.0610,0.0000
1595878668,-0.0162,-0.9944,-0.0261,-0.2439,-0.0610,-0.0610
1595878668,-0.0184,-0.9925,-0.0267,-0.0610,-0.0610,-0.1220
1595878668,-0.0174,-0.9918,-0.0250,-0.1829,0.0000,0.0000
1595878668,-0.0142,-0.9942,-0.0244,-0.3049,-0.0610,-0.0610
1595878668,-0.0153,-0.9918,-0.0229,-0.2439,0.0000,-0.1829
1595878668,-0.0184,-0.9886,-0.0229,-0.2439,0.0610,-0.0610
1595878668,-0.0175,-0.9908,-0.0267,-0.3049,0.0000,-0.0610
1595878668,-0.0159,-0.9942,-0.0253,-0.2439,0.0000,-0.1829
1595878668,-0.0171,-0.9928,-0.0237,-0.3049,0.0000,-0.1829
1595878668,-0.0170,-0.9905,-0.0246,-0.2439,0.0000,0.0000
1595878668,-0.0178,-0.9929,-0.0229,-0.1829,-0.0610,0.0610
1595878668,-0.0160,-0.9946,-0.0222,-0.2439,-0.0610,-0.1220
1595878668,-0.0160,-0.9906,-0.0227,-0.1829,0.0000,-0.1220
1595878668,-0.0184,-0.9915,-0.0244,-0.2439,-0.0610,0.0000
1595878668,-0.0170,-0.9948,-0.0235,-0.1829,0.0000,-0.1220
1595878668,-0.0161,-0.9929,-0.0240,-0.2439,-0.0610,-0.1829
1595878668,-0.0173,-0.9923,-0.0226,-0.2439,-0.0610,-0.0610
1595878668,-0.0168,-0.9926,-0.0239,-0.1829,-0.0610,-0.0610
1595878668,-0.0170,-0.9943,-0.0229,-0.2439,0.0000,-0.2439
1595878668,-0.0175,-0.9939,-0.0244,-0.3659,0.0000,-0.1829
1595878668,-0.0166,-0.9947,-0.0248,-0.3049,0.0000,0.0000
1595878668,-0.0156,-0.9933,-0.0230,-0.2439,0.0000,-0.0610
1595878668,-0.0170,-0.9933,-0.0199,-0.2439,0.0000,-0.1220
1595878668,-0.0172,-0.9909,-0.0237,-0.1829,-0.0610,0.0000
1595878668,-0.0157,-0.9908,-0.0276,-0.3049,0.0000,0.0000
1595878668,-0.0146,-0.9925,-0.0251,-0.3659,0.0000,-0.1829
1595878668,-0.0157,-0.9911,-0.0243,-0.2439,-0.1220,-0.1829
1595878668,-0.0175,-0.9907,-0.0240,-0.2439,-0.0610,0.0610
1595878668,-0.0159,-0.9941,-0.0211,-0.3049,0.0000,-0.0610
1595878668,-0.0175,-0.9941,-0.0225,-0.3049,0.0610,-0.2439
1595878668,-0.0172,-0.9914,-0.0238,-0.3049,-0.0610,-0.0610
1595878668,-0.0164,-0.9927,-0.0246,-0.1829,0.0000,0.0000
1595878668,-0.0182,-0.9940,-0.0207,-0.2439,0.0000,-0.2439
1595878668,-0.0175,-0.9917,-0.0198,-0.2439,0.0000,-0.1829
1595878668,-0.0173,-0.9920,-0.0244,-0.2439,-0.0610,0.0000
1595878668,-0.0166,-0.9943,-0.0245,-0.2439,-0.0610,0.0000
1595878668,-0.0165,-0.9941,-0.0233,-0.3049,0.0000,-0.2439
1595878668,-0.0187,-0.9924,-0.0278,-0.1829,0.0000,-0.1220
1595878668,-0.0168,-0.9909,-0.0258,-0.2439,0.0000,0.0000
1595878668,-0.0176,-0.9943,-0.0234,-0.2439,0.0000,-0.1220
1595878668,-0.0159,-0.9975,-0.0215,-0.1829,0.0000,-0.1220
1595878668,-0.0147,-0.9914,-0.0234,-0.2439,0.0000,0.0000
1595878668,-0.0161,-0.9919,-0.0233,-0.3049,0.0000,0.0610
1595878668,-0.0159,-0.9943,-0.0240,-0.2439,-0.1220,-0.2439
1595878668,-0.0188,-0.9923,-0.0249,-0.2439,-0.0610,-0.1829
1595878668,-0.0167,-0.9946,-0.0252,-0.1829,0.0000,0.0610
1595878668,-0.0162,-0.9949,-0.0247,-0.2439,-0.0610,-0.0610
1595878668,-0.0172,-0.9930,-0.0228,-0.3049,-0.0610,-0.2439
1595878668,-0.0141,-0.9926,-0.0253,-0.2439,-0.0610,-0.0610
1595878668,-0.0168,-0.9922,-0.0267,-0.2439,0.0000,0.0000
1595878668,-0.0162,-0.9919,-0.0244,-0.2439,0.0000,-0.1829
1595878668,-0.0176,-0.9929,-0.0220,-0.2439,-0.0610,-0.1829
1595878668,-0.0192,-0.9921,-0.0244,-0.3659,-0.0610,0.1220
1595878668,-0.0170,-0.9918,-0.0259,-0.2439,-0.0610,0.0610
1595878668,-0.0163,-0.9941,-0.0231,-0.3049,0.0000,-0.2439
1595878668,-0.0177,-0.9932,-0.0248,-0.3049,0.0610,-0.1220
1595878668,-0.0179,-0.9918,-0.0258,-0.2439,0.0000,0.0000
1595878668,-0.0178,-0.9941,-0.0224,-0.2439,-0.0610,-0.1220
1595878668,-0.0157,-0.9943,-0.0224,-0.2439,-0.0610,-0.3049
1595878668,-0.0181,-0.9927,-0.0249,-0.3049,0.0000,-0.1220
1595878668,-0.0187,-0.9945,-0.0264,-0.3659,0.0000,0.0000
1595878668,-0.0165,-0.9937,-0.0232,-0.3659,-0.0610,-0.1829
1595878668,-0.0147,-0.9920,-0.0222,-0.2439,-0.0610,-0.1829
1595878668,-0.0155,-0.9921,-0.0231,-0.2439,-0.0610,0.0000
1595878668,-0.0167,-0.9934,-0.0222,-0.3049,-0.0610,-0.0610
1595878668,-0.0157,-0.9918,-0.0207,-0.3659,-0.1220,-0.1220
1595878668,-0.0186,-0.9901,-0.0235,-0.2439,0.0000,0.0610
1595878668,-0.0197,-0.9923,-0.0231,-0.2439,0.0000,0.0000
1595878668,-0.0184,-0.9920,-0.0230,-0.3659,0.0000,-0.2439
1595878668,-0.0193,-0.9922,-0.0242,-0.3659,0.0000,-0.0610
1595878668,-0.0175,-0.9923,-0.0226,-0.3049,-0.0610,0.0610
1595878668,-0.0156,-0.9916,-0.0245,-0.2439,-0.0610,-0.1220
1595878668,-0.0180,-0.9943,-0.0242,-0.2439,0.0000,-0.2439
1595878668,-0.0190,-0.9922,-0.0260,-0.3049,0.0000,0.0610
1595878668,-0.0176,-0.9935,-0.0255,-0.3049,-0.0610,0.0610
1595878668,-0.0168,-0.9951,-0.0241,-0.3659,-0.0610,-0.1829
1595878668,-0.0168,-0.9902,-0.0226,-0.3659,0.0000,-0.1829
1595878669,-0.0175,-0.9910,-0.0239,-0.1829,0.0000,0.0610
1595878669,-0.0192,-0.9922,-0.0256,-0.2439,0.0000,0.0000
1595878669,-0.0177,-0.9915,-0.0223,-0.3049,-0.0610,-0.3049
1595878669,-0.0168,-0.9917,-0.0229,-0.3049,0.0000,-0.1829
1595878669,-0.0172,-0.9935,-0.0251,-0.1829,-0.0610,0.0000
1595878669,-0.0159,-0.9930,-0.0219,-0.2439,0.0610,-0.1220
1595878669,-0.0160,-0.9916,-0.0233,-0.1220,0.0000,-0.1829
1595878669,-0.0175,-0.9919,-0.0251,-0.2439,-0.0610,0.0000
1595878669,-0.0173,-0.9935,-0.0277,-0.3049,-0.0610,0.0000
1595878669,-0.0173,-0.9954,-0.0259,-0.2439,0.0000,-0.1829
1595878669,-0.0190,-0.9913,-0.0256,-0.3049,-0.0610,-0.0610
1595878669,-0.0176,-0.9913,-0.0237,-0.3049,-0.1220,0.0610
1595878669,-0.0159,-0.9927,-0.0225,-0.2439,-0.1220,-0.0610
1595878669,-0.0156,-0.9930,-0.0244,-0.3049,-0.0610,-0.1829
1595878669,-0.0179,-0.9916,-0.0272,-0.3049,0.0000,0.0000
1595878669,-0.0179,-0.9937,-0.0251,-0.3659,0.0000,0.0610
1595878669,-0.0175,-0.9944,-0.0225,-0.3049,0.0000,-0.0610
1595878669,-0.0194,-0.9934,-0.0240,-0.2439,0.0000,-0.1220
1595878669,-0.0179,-0.9933,-0.0247,-0.3049,0.0610,0.0000
1595878669,-0.0184,-0.9950,-0.0237,-0.3659,0.0000,-0.0610
1595878669,-0.0180,-0.9948,-0.0244,-0.3049,0.0000,-0.1829
1595878669,-0.0199,-0.9921,-0.0251,-0.3049,0.0000,-0.0610
1595878669,-0.0174,-0.9918,-0.0235,-0.3049,0.0000,0.0610
1595878669,-0.0156,-0.9938,-0.0227,-0.2439,0.0000,-0.1220
1595878669,-0.0172,-0.9944,-0.0252,-0.1829,0.0610,-0.1220
1595878669,-0.0151,-0.9938,-0.0247,-0.1829,0.0000,0.0000
1595878669,-0.0158,-0.9928,-0.0236,-0.1829,0.0000,-0.0610
1595878669,-0.0172,-0.9930,-0.0213,-0.1829,-0.0610,-0.1829
1595878669,-0.0154,-0.9899,-0.0209,-0.2439,0.0000,-0.0610
1595878669,-0.0145,-0.9933,-0.0223,-0.3049,0.0000,0.0000
1595878669,-0.0175,-0.9939,-0.0230,-0.3049,0.0000,-0.0610
1595878669,-0.0174,-0.9935,-0.0229,-0.3049,0.0610,-0.1829
1595878669,-0.0178,-0.9914,-0.0248,-0.3049,0.0000,0.0000
1595878669,-0.0165,-0.9936,-0.0231,-0.1829,-0.0610,0.0610
1595878669,-0.0154,-0.9949,-0.0242,-0.2439,-0.0610,-0.1220
1595878669,-0.0169,-0.9929,-0.0255,-0.2439,-0.0610,-0.1220
1595878669,-0.0189,-0.9938,-0.0246,-0.2439,-0.0610,0.0610
1595878669,-0.0176,-0.9934,-0.0248,-0.2439,0.0000,-0.1829
1595878669,-0.0172,-0.9921,-0.0229,-0.3659,-0.0610,-0.1829
1595878669,-0.0162,-0.9939,-0.0252,-0.2439,-0.0610,-0.0610
1595878669,-0.0156,-0.9919,-0.0229,-0.2439,-0.0610,0.0000
1595878669,-0.0167,-0.9950,-0.0236,-0.2439,0.0000,-0.1220
1595878669,-0.0160,-0.9925,-0.0228,-0.3049,0.0000,-0.1220
1595878669,-0.0162,-0.9932,-0.0236,-0.1829,0.0000,-0.0610
1595878669,-0.0172,-0.9932,-0.0247,-0.1829,0.0000,0.0000
1595878669,-0.0173,-0.9944,-0.0237,-0.1829,-0.0610,-0.1220
1595878669,-0.0178,-0.9919,-0.0260,-0.3049,0.0000,-0.1220
1595878669,-0.0189,-0.9915,-0.0250,-0.3049,0.0000,0.0000
1595878669,-0.0173,-0.9937,-0.0215,-0.3049,-0.0610,-0.0610
1595878669,-0.0154,-0.9928,-0.0234,-0.2439,0.0000,-0.1220
1595878669,-0.0168,-0.9936,-0.0264,-0.2439,0.0610,-0.0610
1595878669,-0.0179,-0.9922,-0.0255,-0.3659,0.0000,0.0610
1595878669,-0.0168,-0.9926,-0.0241,-0.3049,0.0610,-0.0610
1595878669,-0.0148,-0.9932,-0.0223,-0.2439,0.0000,-0.0610
1595878669,-0.0153,-0.9937,-0.0230,-0.2439,0.0000,0.0610
1595878669,-0.0160,-0.9930,-0.0251,-0.2439,0.0000,-0.1220
1595878669,-0.0166,-0.9932,-0.0246,-0.2439,0.0000,-0.1829
1595878669,-0.0172,-0.9938,-0.0278,-0.3049,-0.0610,-0.1220
1595878669,-0.0170,-0.9930,-0.0250,-0.3049,0.0610,0.0000
1595878669,-0.0161,-0.9929,-0.0230,-0.3049,0.0610,-0.0610
1595878669,-0.0157,-0.9938,-0.0231,-0.3049,0.0000,-0.0610
1595878669,-0.0161,-0.9926,-0.0262,-0.2439,0.0000,0.0000
1595878669,-0.0157,-0.9923,-0.0257,-0.2439,-0.0610,-0.1220
1595878669,-0.0182,-0.9933,-0.0247,-0.1829,-0.0610,-0.1220
1595878669,-0.0188,-0.9930,-0.0243,-0.2439,0.0000,-0.0610
1595878669,-0.0171,-0.9916,-0.0235,-0.3049,0.0610,0.0000
1595878669,-0.0166,-0.9927,-0.0237,-0.3049,0.0610,-0.0610
1595878669,-0.0174,-0.9932,-0.0226,-0.2439,-0.0610,-0.1220
1595878669,-0.0176,-0.9930,-0.0255,-0.1829,0.0000,-0.0610
1595878669,-0.0161,-0.9936,-0.0255,-0.3049,-0.0610,0.0000
1595878669,-0.0168,-0.9943,-0.0236,-0.2439,0.0000,-0.2439
1595878669,-0.0184,-0.9920,-0.0242,-0.1829,-0.0610,-0.1829
1595878669,-0.0173,-0.9922,-0.0248,-0.3049,-0.0610,0.1220
1595878669,-0.0173,-0.9933,-0.0243,-0.2439,0.0000,0.0000
1595878669,-0.0164,-0.9943,-0.0239,-0.3049,0.0000,-0.1220
1595878669,-0.0153,-0.9937,-0.0252,-0.2439,0.0000,-0.1220
1595878669,-0.0167,-0.9908,-0.0250,-0.2439,0.0000,-0.0610
1595878669,-0.0172,-0.9931,-0.0244,-0.2439,0.0000,-0.1220
1595878669,-0.0187,-0.9930,-0.0209,-0.2439,0.0000,-0.1829
1595878669,-0.0162,-0.9903,-0.0228,-0.2439,0.0000,-0.0610
1595878669,-0.0175,-0.9913,-0.0272,-0.2439,0.0610,0.0000
1595878669,-0.0175,-0.9937,-0.0261,-0.2439,-0.0610,-0.0610
1595878669,-0.0162,-0.9932,-0.0244,-0.1829,-0.0610,-0.0610
1595878669,-0.0167,-0.9934,-0.0240,-0.3049,0.0610,0.0000
1595878669,-0.0156,-0.9936,-0.0222,-0.2439,0.0000,-0.1220
1595878669,-0.0170,-0.9951,-0.0245,-0.2439,0.0000,-0.1220
1595878669,-0.0161,-0.9917,-0.0234,-0.2439,0.0610,0.0000
1595878669,-0.0151,-0.9962,-0.0251,-0.2439,-0.0610,-0.0610
1595878669,-0.0170,-0.9952,-0.0253,-0.2439,-0.0610,-0.1829
1595878669,-0.0178,-0.9917,-0.0228,-0.2439,-0.0610,-0.0610
1595878669,-0.0165,-0.9929,-0.0240,-0.3049,-0.1220,0.0610
1595878669,-0.0144,-0.9933,-0.0220,-0.3049,-0.1220,-0.1220
1595878669,-0.0161,-0.9943,-0.0234,-0.3049,0.0000,-0.1829
1595878669,-0.0175,-0.9922,-0.0247,-0.3049,-0.0610,-0.0610
1595878669,-0.0177,-0.9944,-0.0241,-0.2439,0.0000,-0.0610
1595878669,-0.0171,-0.9938,-0.0225,-0.1829,0.0000,-0.1220
1595878669,-0.0145,-0.9937,-0.0224,-0.3049,-0.0610,-0.1829
1595878669,-0.0168,-0.9917,-0.0234,-0.3049,0.0000,0.0610
1595878669,-0.0176,-0.9935,-0.0234,-0.3049,-0.0610,0.0610
1595878669,-0.0158,-0.9932,-0.0226,-0.2439,0.0000,-0.1829
1595878670,-0.0170,-0.9908,-0.0228,-0.3049,0.0000,-0.1829
1595878670,-0.0164,-0.9915,-0.0240,-0.3659,-0.0610,-0.0610
1595878670,-0.0173,-0.9926,-0.0234,-0.2439,-0.0610,-0.0610
1595878670,-0.0154,-0.9952,-0.0239,-0.3049,0.0000,-0.1829
1595878670,-0.0165,-0.9939,-0.0267,-0.2439,-0.0610,-0.1220
1595878670,-0.0176,-0.9913,-0.0248,-0.2439,0.0000,0.0000
1595878670,-0.0152,-0.9919,-0.0248,-0.2439,0.0000,0.0000
1595878670,-0.0167,-0.9938,-0.0249,-0.3049,0.0610,0.0000
1595878670,-0.0200,-0.9926,-0.0231,-0.3049,0.0000,0.0000
1595878670,-0.0176,-0.9946,-0.0234,-0.2439,-0.0610,0.0000
1595878670,-0.0158,-0.9938,-0.0225,-0.2439,0.0000,-0.1220
1595878670,-0.0177,-0.9937,-0.0242,-0.2439,0.0610,-0.1829
1595878670,-0.0166,-0.9912,-0.0247,-0.3659,-0.0610,-0.0610
1595878670,-0.0161,-0.9935,-0.0241,-0.3659,0.0000,-0.0610
1595878670,-0.0185,-0.9939,-0.0248,-0.1829,-0.0610,-0.0610
1595878670,-0.0182,-0.9925,-0.0228,-0.1829,-0.0610,0.0000
1595878670,-0.0176,-0.9934,-0.0243,-0.2439,0.0000,-0.0610
1595878670,-0.0162,-0.9933,-0.0242,-0.3049,0.0000,-0.1220
1595878670,-0.0165,-0.9929,-0.0222,-0.2439,-0.0610,-0.0610
1595878670,-0.0199,-0.9929,-0.0241,-0.2439,-0.0610,0.0000
1595878670,-0.0179,-0.9929,-0.0226,-0.3049,0.0000,-0.1220
1595878670,-0.0178,-0.9924,-0.0246,-0.3049,-0.0610,-0.1220
1595878670,-0.0174,-0.9929,-0.0242,-0.2439,-0.1220,-0.0610
1595878670,-0.0156,-0.9922,-0.0247,-0.3049,0.0000,-0.0610
1595878670,-0.0175,-0.9922,-0.0234,-0.2439,0.0000,-0.1220
1595878670,-0.0173,-0.9926,-0.0227,-0.2439,0.0000,0.0000
1595878670,-0.0176,-0.9912,-0.0267,-0.2439,0.0000,0.0610
1595878670,-0.0167,-0.9932,-0.0247,-0.2439,0.0000,-0.0610
1595878670,-0.0165,-0.9938,-0.0229,-0.2439,0.0000,-0.2439
1595878670,-0.0172,-0.9932,-0.0243,-0.2439,-0.0610,-0.1220
1595878670,-0.0173,-0.9927,-0.0251,-0.2439,0.0000,0.0000
1595878670,-0.0178,-0.9946,-0.0256,-0.2439,0.0000,-0.0610
1595878670,-0.0183,-0.9919,-0.0230,-0.1829,0.0000,0.0000
1595878670,-0.0187,-0.9901,-0.0230,-0.2439,-0.0610,0.0000
1595878670,-0.0165,-0.9920,-0.0235,-0.1829,-0.1220,-0.1829
1595878670,-0.0145,-0.9911,-0.0242,-0.2439,0.0000,-0.1829
1595878670,-0.0149,-0.9915,-0.0259,-0.3049,0.0000,0.0000
1595878670,-0.0173,-0.9933,-0.0246,-0.3049,0.0000,0.0610
1595878670,-0.0170,-0.9933,-0.0236,-0.3049,0.0000,-0.1829
1595878670,-0.0170,-0.9951,-0.0230,-0.1829,0.0000,-0.1220
1595878670,-0.0184,-0.9934,-0.0253,-0.3049,-0.0610,0.0000
1595878670,-0.0184,-0.9927,-0.0224,-0.3049,-0.0610,-0.0610
1595878670,-0.0162,-0.9926,-0.0243,-0.2439,0.0610,-0.1220
1595878670,-0.0179,-0.9913,-0.0257,-0.3049,0.0000,-0.1220
1595878670,-0.0158,-0.9899,-0.0239,-0.1829,0.0610,-0.1220
1595878670,-0.0170,-0.9932,-0.0258,-0.2439,0.0000,-0.0610
1595878670,-0.0173,-0.9919,-0.0249,-0.3049,-0.0610,0.0000
1595878670,-0.0162,-0.9909,-0.0244,-0.2439,-0.0610,-0.0610
1595878670,-0.0170,-0.9926,-0.0247,-0.2439,-0.0610,-0.1220
1595878670,-0.0171,-0.9923,-0.0230,-0.1829,-0.0610,0.0000
1595878670,-0.0173,-0.9964,-0.0233,-0.2439,-0.0610,-0.1220
1595878670,-0.0160,-0.9927,-0.0227,-0.1829,-0.0610,-0.1220
1595878670,-0.0168,-0.9929,-0.0225,-0.3049,0.0000,-0.1829
1595878670,-0.0171,-0.9940,-0.0254,-0.3049,0.0000,-0.1220
1595878670,-0.0145,-0.9921,-0.0248,-0.3049,0.0000,0.0000
1595878670,-0.0165,-0.9935,-0.0271,-0.3049,0.0610,-0.1220
1595878670,-0.0153,-0.9911,-0.0231,-0.2439,0.0610,-0.0610
1595878670,-0.0181,-0.9940,-0.0231,-0.2439,0.0000,0.0610
1595878670,-0.0184,-0.9941,-0.0242,-0.2439,0.0000,0.0610
1595878670,-0.0179,-0.9949,-0.0229,-0.1829,-0.1220,-0.1220
1595878670,-0.0181,-0.9938,-0.0235,-0.1829,-0.0610,-0.1220
1595878670,-0.0166,-0.9919,-0.0237,-0.2439,0.0610,-0.0610
1595878670,-0.0181,-0.9934,-0.0231,-0.2439,0.0610,-0.1829
1595878670,-0.0172,-0.9915,-0.0248,-0.2439,0.0000,-0.1829
1595878670,-0.0173,-0.9921,-0.0239,-0.3049,-0.0610,-0.0610
1595878670,-0.0192,-0.9923,-0.0247,-0.3659,0.0000,0.0000
1595878670,-0.0174,-0.9923,-0.0212,-0.3049,-0.0610,-0.1220
1595878670,-0.0145,-0.9943,-0.0212,-0.2439,0.0000,-0.2439
1595878670,-0.0179,-0.9935,-0.0197,-0.1829,0.0000,0.0000
1595878670,-0.0165,-0.9909,-0.0236,-0.3049,0.0000,0.0610
1595878670,-0.0178,-0.9919,-0.0249,-0.3049,0.0610,-0.0610
1595878670,-0.0173,-0.9927,-0.0249,-0.1829,0.0610,-0.0610
1595878670,-0.0153,-0.9926,-0.0229,-0.2439,0.0000,-0.0610
1595878670,-0.0155,-0.9916,-0.0226,-0.2439,-0.0610,0.0000
1595878670,-0.0179,-0.9933,-0.0233,-0.2439,0.0000,-0.0610
1595878670,-0.0192,-0.9924,-0.0222,-0.3049,0.0000,-0.0610
1595878670,-0.0165,-0.9916,-0.0235,-0.3049,0.0000,-0.0610
1595878670,-0.0142,-0.9921,-0.0261,-0.3049,-0.0610,-0.2439
1595878670,-0.0135,-0.9942,-0.0289,-0.3049,0.0000,-0.3049
1595878670,-0.0170,-0.9926,-0.0241,-0.2439,0.0000,-0.1829
1595878670,-0.0177,-0.9910,-0.0232,-0.2439,0.0000,0.0610
1595878670,-0.0186,-0.9953,-0.0251,-0.3659,-0.0610,0.1220
1595878670,-0.0159,-0.9949,-0.0272,-0.3049,0.0000,-0.3659
1595878670,-0.0165,-0.9946,-0.0228,-0.3049,0.0610,-0.4268
1595878670,-0.0186,-0.9919,-0.0242,-0.3049,-0.0610,0.1829
1595878670,-0.0164,-0.9940,-0.0215,-0.2439,0.0000,0.1829
1595878670,-0.0167,-0.9932,-0.0247,-0.3049,-0.0610,-0.1829
1595878670,-0.0173,-0.9892,-0.0253,-0.2439,-0.0610,-0.1829
1595878670,-0.0175,-0.9912,-0.0231,-0.3049,0.0000,0.0000
1595878670,-0.0159,-0.9935,-0.0268,-0.2439,-0.0610,-0.1829
1595878670,-0.0161,-0.9937,-0.0255,-0.3049,0.0000,-0.3049
1595878670,-0.0187,-0.9902,-0.0213,-0.3049,-0.0610,0.0610
1595878670,-0.0185,-0.9926,-0.0243,-0.2439,0.0000,0.1829
1595878670,-0.0140,-0.9955,-0.0211,-0.1829,0.0000,-0.4878
1595878670,-0.0150,-0.9929,-0.0242,-0.2439,-0.0610,-0.4878
1595878670,-0.0187,-0.9916,-0.0244,-0.2439,-0.0610,0.1220
1595878670,-0.0174,-0.9954,-0.0226,-0.2439,0.0000,0.1220
1595878670,-0.0168,-0.9937,-0.0231,-0.3659,0.0610,-0.2439
1595878670,-0.0197,-0.9893,-0.0262,-0.3659,-0.0610,0.0610
1595878670,-0.0152,-0.9930,-0.0245,-0.3049,0.0000,0.1220
1595878670,-0.0142,-0.9966,-0.0251,-0.3049,0.0000,-0.5488
1595878670,-0.0144,-0.9896,-0.0276,-0.2439,-0.0610,-0.3659
1595878671,-0.0157,-0.9905,-0.0248,-0.1829,0.0000,0.0000
1595878671,-0.0187,-0.9932,-0.0233,-0.2439,-0.0610,0.0610
1595878671,-0.0208,-0.9930,-0.0195,-0.3049,-0.0610,0.2439
1595878671,-0.0209,-0.9917,-0.0208,-0.3049,0.0000,0.3049
1595878671,-0.0179,-0.9965,-0.0236,-0.2439,0.0000,-0.1829
1595878671,-0.0150,-0.9936,-0.0214,-0.3049,-0.0610,-0.6098
1595878671,-0.0155,-0.9919,-0.0234,-0.3049,-0.0610,-0.3049
1595878671,-0.0135,-0.9918,-0.0251,-0.3659,-0.0610,0.0000
1595878671,-0.0144,-0.9970,-0.0250,-0.2439,0.0000,-0.2439
1595878671,-0.0185,-0.9927,-0.0289,-0.3049,0.0000,-0.1829
1595878671,-0.0206,-0.9891,-0.0284,-0.2439,-0.1220,0.6098
1595878671,-0.0173,-0.9938,-0.0235,-0.1829,0.0000,0.2439
1595878671,-0.0213,-0.9951,-0.0207,-0.2439,0.0610,-0.5488
1595878671,-0.0193,-0.9888,-0.0239,-0.2439,-0.0610,0.0610
1595878671,-0.0156,-0.9951,-0.0238,-0.3049,-0.0610,-0.1220
1595878671,-0.0145,-0.9973,-0.0245,-0.3659,0.0000,-0.7317
1595878671,-0.0156,-0.9930,-0.0261,-0.3049,0.0000,-0.2439
1595878671,-0.0174,-0.9919,-0.0259,-0.2439,-0.1220,0.3659
1595878671,-0.0190,-0.9938,-0.0240,-0.3049,0.0000,-0.0610
1595878671,-0.0181,-0.9915,-0.0224,-0.3049,0.0000,-0.1220
1595878671,-0.0183,-0.9897,-0.0231,-0.2439,-0.0610,0.1829
1595878671,-0.0167,-0.9925,-0.0253,-0.2439,0.0000,0.0610
1595878671,-0.0127,-0.9954,-0.0281,-0.3049,-0.0610,-0.3659
1595878671,-0.0112,-0.9966,-0.0254,-0.3049,-0.1220,-0.4878
1595878671,-0.0130,-0.9933,-0.0244,-0.2439,-0.0610,-0.1829
1595878671,-0.0160,-0.9938,-0.0209,-0.3049,0.0000,0.1220
1595878671,-0.0164,-0.9924,-0.0204,-0.3049,-0.1220,0.1220
1595878671,-0.0224,-0.9911,-0.0211,-0.1829,-0.0610,0.1829
1595878671,-0.0208,-0.9880,-0.0232,-0.1829,0.0000,0.3659
1595878671,-0.0201,-0.9914,-0.0240,-0.2439,-0.0610,0.1220
1595878671,-0.0187,-0.9925,-0.0251,-0.2439,0.0000,-0.3049
1595878671,-0.0121,-0.9940,-0.0266,-0.3049,0.0000,-0.4878
1595878671,-0.0124,-0.9953,-0.0265,-0.3049,0.0610,-0.3659
1595878671,-0.0146,-0.9934,-0.0239,-0.2439,0.0610,-0.1220
1595878671,-0.0161,-0.9948,-0.0280,-0.1829,0.0000,0.1829
1595878671,-0.0206,-0.9910,-0.0244,-0.2439,-0.0610,0.1829
1595878671,-0.0219,-0.9926,-0.0203,-0.2439,0.0000,0.1220
1595878671,-0.0201,-0.9912,-0.0185,-0.3049,0.0000,0.1829
1595878671,-0.0168,-0.9911,-0.0198,-0.3659,-0.0610,0.0610
1595878671,-0.0146,-0.9929,-0.0239,-0.3659,0.0000,-0.4268
1595878671,-0.0148,-0.9943,-0.0260,-0.3659,0.0610,-0.5488
1595878671,-0.0153,-0.9933,-0.0260,-0.3049,0.0000,-0.1829
1595878671,-0.0145,-0.9940,-0.0269,-0.3049,0.0000,0.0000
1595878671,-0.0158,-0.9958,-0.0248,-0.2439,0.0000,-0.0610
1595878671,-0.0188,-0.9928,-0.0230,-0.2439,0.0000,0.0610
1595878671,-0.0225,-0.9911,-0.0212,-0.2439,0.0610,0.3659
1595878671,-0.0202,-0.9917,-0.0240,-0.2439,0.0000,0.2439
1595878671,-0.0178,-0.9945,-0.0244,-0.3049,-0.0610,-0.2439
1595878671,-0.0162,-0.9938,-0.0236,-0.3049,0.0000,-0.4268
1595878671,-0.0143,-0.9941,-0.0220,-0.2439,0.0000,-0.3049
1595878671,-0.0140,-0.9941,-0.0209,-0.3659,-0.0610,-0.2439
1595878671,-0.0159,-0.9934,-0.0241,-0.3049,0.0610,-0.2439
1595878671,-0.0177,-0.9921,-0.0255,-0.3049,-0.0610,0.0000
1595878671,-0.0190,-0.9919,-0.0257,-0.2439,0.0000,0.1829
1595878671,-0.0183,-0.9922,-0.0239,-0.3049,-0.0610,0.1220
1595878671,-0.0189,-0.9910,-0.0255,-0.2439,-0.0610,-0.1220
1595878671,-0.0161,-0.9937,-0.0261,-0.2439,0.0610,-0.1829
1595878671,-0.0158,-0.9928,-0.0239,-0.3659,-0.0610,-0.2439
1595878671,-0.0144,-0.9947,-0.0225,-0.3049,-0.0610,-0.1220
1595878671,-0.0167,-0.9942,-0.0232,-0.3049,-0.0610,-0.1220
1595878671,-0.0198,-0.9927,-0.0222,-0.2439,-0.0610,0.0610
1595878671,-0.0179,-0.9925,-0.0217,-0.3049,0.0000,0.1220
1595878671,-0.0198,-0.9929,-0.0228,-0.3049,-0.0610,0.1220
1595878671,-0.0179,-0.9932,-0.0220,-0.4268,0.0000,-0.0610
1595878671,-0.0190,-0.9946,-0.0269,-0.3049,-0.0610,-0.3049
1595878671,-0.0142,-0.9959,-0.0281,-0.2439,-0.1220,-0.4878
1595878671,-0.0140,-0.9943,-0.0267,-0.3049,0.0000,-0.3659
1595878671,-0.0140,-0.9946,-0.0245,-0.3049,0.0000,-0.0610
1595878671,-0.0162,-0.9948,-0.0222,-0.2439,0.0000,0.1220
1595878671,-0.0184,-0.9907,-0.0208,-0.2439,0.0000,0.1829
1595878671,-0.0199,-0.9890,-0.0219,-0.2439,-0.1829,0.2439
1595878671,-0.0219,-0.9902,-0.0266,-0.3049,0.0000,0.1220
1595878671,-0.0189,-0.9935,-0.0253,-0.3049,0.0000,-0.1220
1595878671,-0.0151,-0.9935,-0.0236,-0.3049,0.0610,-0.3049
1595878671,-0.0125,-0.9924,-0.0251,-0.2439,0.0000,-0.3659
1595878671,-0.0127,-0.9942,-0.0242,-0.3049,-0.0610,-0.3049
1595878671,-0.0167,-0.9938,-0.0235,-0.2439,0.0000,-0.1220
1595878671,-0.0172,-0.9936,-0.0266,-0.2439,-0.0610,0.1829
1595878671,-0.0206,-0.9929,-0.0239,-0.2439,0.0000,0.2439
1595878671,-0.0192,-0.9911,-0.0219,-0.2439,-0.0610,0.1829
1595878671,-0.0175,-0.9908,-0.0190,-0.2439,-0.0610,0.0610
1595878671,-0.0164,-0.9912,-0.0209,-0.3659,0.0610,-0.0610
1595878671,-0.0167,-0.9935,-0.0251,-0.3049,0.0610,-0.3049
1595878671,-0.0153,-0.9951,-0.0254,-0.2439,-0.0610,-0.3659
1595878671,-0.0148,-0.9930,-0.0259,-0.2439,-0.0610,-0.1829
1595878671,-0.0157,-0.9929,-0.0251,-0.2439,-0.0610,-0.0610
1595878671,-0.0190,-0.9946,-0.0238,-0.1829,-0.1220,0.1220
1595878671,-0.0175,-0.9904,-0.0255,-0.3049,-0.0610,0.0610
1595878671,-0.0187,-0.9896,-0.0216,-0.3049,-0.0610,0.0000
1595878671,-0.0189,-0.9937,-0.0272,-0.3049,0.0000,-0.0610
1595878671,-0.0171,-0.9948,-0.0244,-0.2439,-0.0610,-0.1829
1595878671,-0.0151,-0.9928,-0.0237,-0.1829,-0.0610,-0.3659
1595878671,-0.0151,-0.9935,-0.0217,-0.2439,0.0000,-0.2439
1595878671,-0.0182,-0.9947,-0.0250,-0.1829,-0.0610,-0.0610
1595878671,-0.0175,-0.9925,-0.0248,-0.3049,0.0000,0.0000
1595878671,-0.0177,-0.9928,-0.0239,-0.2439,0.0000,-0.0610
1595878671,-0.0175,-0.9938,-0.0250,-0.2439,0.0000,-0.0610
1595878671,-0.0164,-0.9926,-0.0244,-0.2439,-0.0610,0.0000
1595878671,-0.0168,-0.9935,-0.0237,-0.2439,-0.0610,-0.1220
1595878671,-0.0170,-0.9927,-0.0223,-0.2439,0.0610,-0.1829
1595878671,-0.0171,-0.9943,-0.0219,-0.3049,-0.0610,-0.1829
1595878672,-0.0174,-0.9943,-0.0252,-0.3659,-0.0610,0.0000
1595878672,-0.0186,-0.9932,-0.0240,-0.3049,0.0000,0.0610
1595878672,-0.0195,-0.9922,-0.0245,-0.3049,0.0000,0.1220
1595878672,-0.0219,-0.9927,-0.0223,-0.3049,0.0000,0.0610
1595878672,-0.0183,-0.9915,-0.0226,-0.2439,-0.0610,-0.0610
1595878672,-0.0168,-0.9916,-0.0259,-0.3049,0.0000,-0.1829
1595878672,-0.0153,-0.9928,-0.0269,-0.2439,0.0610,-0.3049
1595878672,-0.0126,-0.9950,-0.0289,-0.2439,0.0610,-0.3049
1595878672,-0.0146,-0.9955,-0.0253,-0.3049,0.0000,-0.2439
1595878672,-0.0147,-0.9927,-0.0208,-0.3049,0.0000,0.0000
1595878672,-0.0176,-0.9922,-0.0218,-0.1220,0.0610,0.1220
1595878672,-0.0176,-0.9920,-0.0234,-0.1829,0.0000,0.1220
1595878672,-0.0187,-0.9908,-0.0226,-0.2439,0.0000,0.0000
1595878672,-0.0202,-0.9921,-0.0251,-0.2439,-0.0610,0.0000
1595878672,-0.0162,-0.9932,-0.0250,-0.1829,-0.0610,-0.0610
1595878672,-0.0160,-0.9937,-0.0223,-0.3049,0.0000,-0.1829
1595878672,-0.0169,-0.9921,-0.0242,-0.3659,-0.0610,-0.2439
1595878672,-0.0158,-0.9935,-0.0257,-0.2439,-0.0610,-0.1220
1595878672,-0.0164,-0.9939,-0.0268,-0.1220,-0.0610,0.0000
1595878672,-0.0173,-0.9933,-0.0229,-0.1829,-0.0610,0.0000
1595878672,-0.0197,-0.9924,-0.0212,-0.1829,0.0000,0.0610
1595878672,-0.0208,-0.9927,-0.0248,-0.2439,0.0000,0.1220
1595878672,-0.0152,-0.9922,-0.0231,-0.3049,0.0000,-0.0610
1595878672,-0.0161,-0.9940,-0.0224,-0.1829,0.0000,-0.2439
1595878672,-0.0163,-0.9944,-0.0234,-0.3049,0.0000,-0.1829
1595878672,-0.0177,-0.9923,-0.0254,-0.2439,-0.0610,-0.1829
1595878672,-0.0156,-0.9930,-0.0244,-0.2439,0.0000,-0.1220
1595878672,-0.0153,-0.9928,-0.0206,-0.3049,0.0000,-0.0610
1595878672,-0.0179,-0.9922,-0.0231,-0.1829,-0.0610,0.1220
1595878672,-0.0178,-0.9928,-0.0247,-0.1829,0.0000,0.0000
1595878672,-0.0192,-0.9922,-0.0226,-0.2439,0.0000,-0.0610
1595878672,-0.0181,-0.9925,-0.0232,-0.2439,0.0000,-0.0610
1595878672,-0.0175,-0.9913,-0.0224,-0.2439,0.0000,-0.1220
1595878672,-0.0172,-0.9951,-0.0217,-0.2439,0.0000,-0.1829
1595878672,-0.0181,-0.9918,-0.0219,-0.3049,-0.0610,-0.1220
1595878672,-0.0151,-0.9895,-0.0262,-0.2439,-0.0610,0.0000
1595878672,-0.0148,-0.9965,-0.0237,-0.3049,-0.0610,-0.1220
1595878672,-0.0148,-0.9954,-0.0226,-0.1829,0.0000,-0.3659
1595878672,-0.0176,-0.9929,-0.0229,-0.2439,0.0000,-0.1220
1595878672,-0.0200,-0.9927,-0.0225,-0.1829,-0.0610,0.3659
1595878672,-0.0153,-0.9926,-0.0234,-0.3049,-0.0610,0.0000
1595878672,-0.0145,-0.9950,-0.0242,-0.3049,0.0000,-0.4268
1595878672,-0.0188,-0.9896,-0.0240,-0.3049,0.0000,-0.3659
1595878672,-0.0204,-0.9932,-0.0240,-0.1829,-0.1220,0.3659
1595878672,-0.0134,-0.9905,-0.0220,-0.2439,-0.0610,0.2439
1595878672,-0.0180,-0.9926,-0.0246,-0.3049,0.0000,-0.5488
1595878672,-0.0195,-0.9910,-0.0264,-0.3659,-0.0610,0.1220
1595878672,-0.0163,-0.9942,-0.0241,-0.3049,-0.0610,-0.1220
1595878672,-0.0164,-0.9966,-0.0264,-0.3049,0.0000,-0.4878
1595878672,-0.0158,-0.9924,-0.0269,-0.3049,-0.1220,-0.1220
1595878672,-0.0173,-0.9930,-0.0243,-0.2439,-0.0610,0.1829
1595878672,-0.0148,-0.9934,-0.0240,-0.2439,0.0610,-0.1220
1595878672,-0.0159,-0.9938,-0.0235,-0.3049,0.0610,-0.3049
1595878672,-0.0167,-0.9916,-0.0223,-0.2439,-0.0610,0.0610
1595878672,-0.0144,-0.9932,-0.0225,-0.3049,-0.0610,0.0610
1595878672,-0.0163,-0.9924,-0.0239,-0.2439,0.0000,-0.1220
1595878672,-0.0182,-0.9900,-0.0261,-0.1829,0.0000,0.0610
1595878672,-0.0182,-0.9932,-0.0248,-0.3049,-0.0610,0.1829
1595878672,-0.0186,-0.9936,-0.0217,-0.3049,0.0000,-0.1829
1595878672,-0.0187,-0.9927,-0.0249,-0.2439,0.0000,-0.1829
1595878672,-0.0178,-0.9931,-0.0280,-0.2439,-0.1220,-0.0610
1595878672,-0.0169,-0.9963,-0.0248,-0.3049,-0.0610,-0.1829
1595878672,-0.0157,-0.9946,-0.0222,-0.3049,-0.0610,-0.1829
1595878672,-0.0165,-0.9936,-0.0220,-0.4268,0.0000,-0.0610
1595878672,-0.0171,-0.9955,-0.0202,-0.3049,-0.0610,0.0000
1595878672,-0.0201,-0.9930,-0.0192,-0.1829,-0.0610,0.0000
1595878672,-0.0222,-0.9888,-0.0203,-0.2439,-0.0610,0.1829
1595878672,-0.0195,-0.9893,-0.0276,-0.3049,-0.0610,0.1829
1595878672,-0.0135,-0.9934,-0.0270,-0.3049,0.0000,-0.4268
1595878672,-0.0109,-0.9942,-0.0268,-0.3049,0.0610,-0.7317
1595878672,-0.0154,-0.9906,-0.0296,-0.3049,0.0000,-0.1829
1595878672,-0.0136,-0.9948,-0.0266,-0.3659,0.0000,0.1829
1595878672,-0.0160,-0.9959,-0.0205,-0.3049,0.0610,-0.1829
1595878672,-0.0196,-0.9914,-0.0188,-0.1829,0.0610,0.0000
1595878672,-0.0227,-0.9893,-0.0215,-0.1220,0.0000,0.6098
1595878672,-0.0215,-0.9934,-0.0228,-0.1220,-0.0610,0.3049
1595878672,-0.0204,-0.9939,-0.0204,-0.3659,0.0000,-0.2439
1595878672,-0.0202,-0.9863,-0.0231,-0.1829,0.0000,-0.0610
1595878672,-0.0152,-0.9931,-0.0286,-0.3049,-0.0610,0.0610
1595878672,-0.0073,-0.9983,-0.0276,-0.3659,0.0000,-0.9146
1595878672,-0.0119,-0.9955,-0.0309,-0.3049,0.0610,-0.9756
1595878672,-0.0182,-0.9891,-0.0259,-0.1829,-0.0610,0.3659
1595878672,-0.0189,-0.9907,-0.0210,-0.1220,-0.0610,0.8537
1595878672,-0.0181,-0.9941,-0.0188,-0.1829,0.0000,0.0000
1595878672,-0.0178,-0.9898,-0.0212,-0.2439,-0.0610,-0.3049
1595878672,-0.0194,-0.9889,-0.0240,-0.2439,-0.0610,0.0610
1595878672,-0.0173,-0.9923,-0.0240,-0.1829,0.0000,0.0000
1595878672,-0.0162,-0.9949,-0.0234,-0.2439,-0.0610,-0.3049
1595878672,-0.0178,-0.9937,-0.0226,-0.3049,0.0610,-0.2439
1595878672,-0.0189,-0.9954,-0.0211,-0.1829,0.0000,0.0000
1595878672,-0.0186,-0.9943,-0.0235,-0.1220,0.0000,-0.0610
1595878672,-0.0211,-0.9913,-0.0253,-0.3049,0.0000,-0.0610
1595878672,-0.0176,-0.9932,-0.0267,-0.3049,-0.0610,0.0610
1595878672,-0.0143,-0.9934,-0.0218,-0.2439,0.0000,-0.3659
1595878672,-0.0145,-0.9916,-0.0222,-0.2439,0.0610,-0.3049
1595878672,-0.0132,-0.9915,-0.0253,-0.3049,0.0000,0.0610
1595878672,-0.0160,-0.9948,-0.0228,-0.3659,0.0000,-0.1220
1595878672,-0.0189,-0.9935,-0.0220,-0.2439,0.0610,-0.1220
1595878672,-0.0206,-0.9922,-0.0209,-0.1829,0.0000,0.3659
1595878672,-0.0173,-0.9917,-0.0240,-0.2439,-0.0610,0.1829
1595878672,-0.0153,-0.9940,-0.0244,-0.2439,0.0000,-0.5488
1595878672,-0.0175,-0.9927,-0.0248,-0.3049,-0.1220,-0.1829
1595878673,-0.0199,-0.9913,-0.0291,-0.2439,-0.0610,0.5488
1595878673,-0.0135,-0.9974,-0.0248,-0.3049,-0.0610,-0.1220
1595878673,-0.0142,-0.9949,-0.0229,-0.3049,0.0000,-0.7317
1595878673,-0.0183,-0.9895,-0.0231,-0.3049,-0.0610,0.0000
1595878673,-0.0146,-0.9929,-0.0239,-0.1829,-0.1829,0.4268
1595878673,-0.0144,-0.9968,-0.0244,-0.3659,0.0610,-0.3659
1595878673,-0.0175,-0.9944,-0.0236,-0.3659,0.0610,-0.4268
1595878673,-0.0215,-0.9883,-0.0236,-0.1829,0.0000,0.6098
1595878673,-0.0206,-0.9901,-0.0238,-0.2439,0.0610,0.5488
1595878673,-0.0172,-0.9963,-0.0271,-0.3659,-0.0610,-0.3659
1595878673,-0.0166,-0.9943,-0.0262,-0.2439,-0.0610,-0.4878
1595878673,-0.0139,-0.9915,-0.0258,-0.1829,-0.0610,-0.1220
1595878673,-0.0137,-0.9962,-0.0240,-0.1829,0.0000,-0.3659
1595878673,-0.0121,-0.9946,-0.0246,-0.2439,0.0000,-0.4878
1595878673,-0.0153,-0.9926,-0.0236,-0.1829,0.0000,-0.0610
1595878673,-0.0209,-0.9913,-0.0212,-0.1829,0.0000,0.4268
1595878673,-0.0233,-0.9925,-0.0218,-0.1829,0.0000,0.3659
1595878673,-0.0200,-0.9925,-0.0231,-0.2439,0.0000,0.2439
1595878673,-0.0182,-0.9931,-0.0226,-0.3659,-0.0610,-0.1829
1595878673,-0.0175,-0.9944,-0.0259,-0.2439,0.0000,-0.5488
1595878673,-0.0145,-0.9916,-0.0264,-0.3049,0.0610,-0.4268
1595878673,-0.0140,-0.9916,-0.0251,-0.3049,0.0610,-0.1220
1595878673,-0.0142,-0.9925,-0.0253,-0.3049,-0.0610,-0.2439
1595878673,-0.0164,-0.9930,-0.0253,-0.3049,0.0000,-0.1829
1595878673,-0.0168,-0.9913,-0.0242,-0.2439,0.0000,0.2439
1595878673,-0.0151,-0.9929,-0.0247,-0.1829,0.0000,0.2439
1595878673,-0.0195,-0.9922,-0.0229,-0.3049,0.0000,-0.1220
1595878673,-0.0197,-0.9910,-0.0221,-0.3049,-0.0610,-0.0610
1595878673,-0.0168,-0.9933,-0.0225,-0.3659,0.0000,0.0610
1595878673,-0.0153,-0.9942,-0.0226,-0.3049,0.0000,-0.3659
1595878673,-0.0161,-0.9954,-0.0250,-0.2439,0.0610,-0.3659
1595878673,-0.0190,-0.9927,-0.0256,-0.3049,-0.0610,0.0000
1595878673,-0.0187,-0.9922,-0.0227,-0.1829,-0.0610,0.0610
1595878673,-0.0162,-0.9946,-0.0240,-0.1829,0.0000,-0.2439
1595878673,-0.0180,-0.9916,-0.0227,-0.3659,-0.0610,-0.0610
1595878673,-0.0182,-0.9913,-0.0240,-0.3049,-0.0610,0.0610
1595878673,-0.0160,-0.9960,-0.0226,-0.2439,-0.0610,-0.1829
1595878673,-0.0170,-0.9920,-0.0229,-0.2439,0.0000,-0.3049
1595878673,-0.0186,-0.9910,-0.0256,-0.2439,-0.0610,-0.0610
1595878673,-0.0172,-0.9952,-0.0242,-0.3659,0.0000,0.0610
1595878673,-0.0167,-0.9950,-0.0222,-0.2439,0.0610,-0.1829
1595878673,-0.0197,-0.9735,-0.0204,-0.3049,0.0000,-0.1220
1595878673,0.0385,-0.4003,0.1047,-0.3049,-0.0610,0.0610
1595878673,0.1340,-1.1255,0.2227,-16.6463,3.2927,-8.2927
1595878673,-0.4510,-1.0948,0.0168,-7.4390,11.4024,7.6220
1595878673,-0.1014,-0.9671,-0.1388,-21.1585,5.5488,21.8293
1595878673,0.0960,-1.0411,-0.2149,3.8415,5.7317,-99.7561
1595878673,0.0246,-0.9846,-0.1777,6.7683,6.5854,-116.7683
1595878673,0.0806,-0.9766,0.0284,7.8659,7.0122,-89.2073
1595878673,0.1207,-0.9910,0.0620,23.0488,8.7805,-81.5854
1595878673,-0.1165,-1.0017,-0.0269,2.7439,2.3171,-59.6341
1595878673,0.0049,-1.0390,0.0311,3.2317,0.4878,-51.1585
1595878673,0.0070,-1.0129,0.0104,8.8415,-4.8780,-65.9756
1595878673,0.1398,-0.9396,-0.0461,1.5854,-12.1951,-59.6341
1595878673,0.3034,-0.9542,-0.1351,10.3049,-16.5854,-53.0488
1595878673,0.2829,-0.9564,-0.1024,13.5976,-13.1098,-46.7073
1595878673,0.2109,-0.9694,-0.0004,7.9878,-3.4146,-34.8780
1595878673,0.1486,-0.9870,-0.0106,1.9512,-0.6707,-13.1707
1595878673,0.1064,-0.9878,-0.0172,-2.9268,-0.9756,14.9390
1595878673,0.2242,-0.9818,-0.0159,-3.9634,-0.9756,27.6220
1595878673,0.2285,-1.0148,-0.0106,-4.0244,-0.9146,39.0854
1595878673,0.1426,-0.9594,-0.0013,-11.1585,-3.9024,87.2561
1595878673,0.1158,-1.0159,-0.0200,-9.8171,-5.7317,130.1219
1595878673,-0.0209,-1.1380,-0.0595,-5.4878,-6.9512,156.7683
1595878673,-0.1087,-1.0831,-0.0555,-1.7073,-5.7927,167.8049
1595878673,-0.1351,-0.9461,-0.0243,3.5366,-4.3902,149.8171
1595878673,-0.1420,-0.7858,0.0154,7.7439,-3.4146,116.8902
1595878673,-0.1992,-0.9449,-0.0125,8.4756,-1.6463,79.8171
1595878673,-0.2047,-0.9384,-0.0104,0.7317,0.5488,41.7683
1595878673,-0.1267,-0.8896,0.0008,-1.3415,0.7927,4.8780
1595878673,-0.0992,-0.9456,-0.0149,-2.5610,0.0000,-24.5122
1595878673,-0.0937,-0.9907,-0.0297,-5.6098,1.7073,-50.0000
1595878673,-0.0445,-1.0161,-0.0349,-5.8537,3.5366,-74.2073
1595878673,0.0063,-1.0511,-0.0375,-4.8171,4.0854,-92.3171
1595878673,0.0418,-1.0657,-0.0361,-3.4146,3.9024,-97.5610
1595878673,0.0786,-0.9639,-0.0128,-1.2805,3.2927,-91.0366
1595878673,0.0867,-0.9483,-0.0013,0.4878,2.3171,-75.2439
1595878673,0.1638,-1.0417,-0.0201,-1.6463,1.7683,-56.8902
1595878673,0.1596,-0.9789,-0.0198,1.5244,1.6463,-35.9146
1595878673,0.0168,-0.9557,-0.0098,-0.6098,0.2439,4.4512
1595878673,-0.0846,-1.0276,-0.0383,-3.9634,-1.7073,36.2805
1595878673,-0.0759,-1.0006,-0.0253,-1.6463,-0.6098,26.0366
1595878673,0.0417,-0.9857,0.0117,1.2195,1.7073,-16.4024
1595878673,0.1069,-0.9719,0.0400,2.6220,2.6220,-45.0000
1595878673,0.0675,-0.9957,0.0480,-0.1220,2.0732,-38.7195
1595878673,0.0452,-0.9937,0.0087,-2.5610,1.4024,-21.7073
1595878673,0.0068,-1.0046,-0.1189,-7.5000,0.0000,-13.1098
1595878673,0.0594,-1.0093,-0.1430,-4.5732,-0.9146,-13.5366
1595878673,0.1118,-0.9866,-0.0280,0.7317,-0.3659,-22.5610
1595878673,0.1000,-0.9708,-0.0118,1.9512,1.2805,-25.8537
1595878673,0.0404,-1.0240,-0.0420,0.3659,0.5488,-10.7317
1595878673,0.0402,-0.9904,-0.0359,-0.3659,-0.4878,-2.5610
1595878673,0.1138,-1.0399,-0.0215,2.3780,-0.4878,-11.5854
1595878673,0.1478,-0.9814,-0.0123,6.0976,-0.6098,-12.6220
1595878673,0.1461,-0.9139,0.0112,1.4024,-2.0122,12.9268
1595878673,0.1673,-1.0375,-0.0242,-0.7317,-4.6341,49.5122
1595878673,-0.0701,-0.9322,-0.0342,-1.5854,-5.3659,77.8659
1595878673,-0.1978,-0.7736,-0.0378,-2.5610,-3.5366,94.3902
1595878673,-0.0479,-1.0346,-0.0591,1.1585,-1.0366,46.5244
1595878673,0.0452,-0.8838,0.0158,0.6098,0.0000,-8.5366
1595878673,0.0537,-0.9661,-0.0107,-1.5854,-0.3049,-22.8049
1595878673,0.0665,-1.1006,-0.0471,0.3659,1.0976,-23.4146
1595878674,0.0637,-0.9466,-0.0079,1.1585,1.0976,-14.9390
1595878674,0.0457,-0.9740,-0.0126,-0.3659,-0.4878,2.3780
1595878674,0.0259,-1.0323,-0.0314,-0.9146,-0.6707,10.8537
1595878674,0.0095,-0.9662,-0.0181,0.0000,-0.4268,15.6707
1595878674,-0.0025,-0.9835,-0.0253,-0.4878,-0.7317,16.4024
1595878674,0.0021,-1.0013,-0.0275,-0.6098,-0.4268,9.0244
1595878674,0.0134,-0.9810,-0.0226,-0.1829,0.1220,0.0610
1595878674,0.0272,-0.9949,-0.0240,-0.1829,0.1829,-6.5244
1595878674,0.0380,-1.0000,-0.0215,-0.3659,0.3049,-9.6341
1595878674,0.0386,-0.9902,-0.0188,-0.2439,0.3049,-7.5610
1595878674,0.0326,-0.9971,-0.0239,-0.1220,0.1829,-2.5610
1595878674,0.0254,-0.9915,-0.0248,-0.3659,-0.1220,2.3780
1595878674,0.0175,-0.9916,-0.0230,-0.2439,-0.3049,5.6098
1595878674,0.0137,-0.9908,-0.0228,-0.3049,-0.1829,5.3659
1595878674,0.0178,-0.9884,-0.0226,-0.3659,-0.0610,2.5000
1595878674,0.0227,-0.9932,-0.0224,-0.3049,0.0610,-1.0976
1595878674,0.0299,-0.9948,-0.0211,-0.3049,0.1829,-3.5976
1595878674,0.0321,-0.9930,-0.0228,-0.2439,0.1829,-3.4756
1595878674,0.0300,-0.9930,-0.0236,-0.2439,0.0610,-1.2805
1595878674,0.0231,-0.9905,-0.0233,-0.2439,-0.1220,1.2195
1595878674,0.0191,-0.9889,-0.0243,-0.3049,-0.0610,2.5000
1595878674,0.0211,-0.9914,-0.0226,-0.3659,-0.0610,1.8902
1595878674,0.0234,-0.9918,-0.0229,-0.2439,-0.0610,0.1829
1595878674,0.0261,-0.9958,-0.0189,-0.2439,-0.0610,-1.4024
1595878674,0.0275,-0.9935,-0.0199,-0.2439,0.0000,-1.6463
1595878674,0.0242,-0.9867,-0.0220,-0.2439,0.0000,-0.5488
1595878674,0.0226,-1.0034,-0.0251,-0.2439,0.0610,1.0976
1595878674,0.0209,-0.9901,-0.0181,-0.3659,-0.0610,1.4024
1595878674,0.0218,-0.9839,-0.0225,-0.1220,-0.0610,0.3659
1595878674,0.0261,-0.9992,-0.0255,-0.1829,-0.0610,-0.4268
1595878674,0.0293,-0.9921,-0.0229,-0.3659,0.0610,-1.3415
1595878674,0.0291,-0.9937,-0.0239,-0.2439,0.0000,-0.9756
1595878674,0.0270,-0.9902,-0.0262,-0.3659,-0.0610,-0.3659
1595878674,0.0249,-0.9924,-0.0205,-0.3659,0.0000,0.2439
1595878674,0.0209,-0.9931,-0.0166,-0.2439,0.0610,0.8537
1595878674,0.0200,-0.9910,-0.0242,-0.3049,-0.0610,1.4634
1595878674,0.0201,-0.9935,-0.0273,-0.3049,-0.0610,1.2805
1595878674,0.0228,-0.9955,-0.0203,-0.3659,0.0000,0.0000
1595878674,0.0269,-0.9897,-0.0218,-0.3049,0.0610,-1.2805
1595878674,0.0311,-0.9962,-0.0249,-0.2439,0.0000,-2.0122
1595878674,0.0303,-0.9937,-0.0239,-0.3049,0.0000,-1.8293
1595878674,0.0273,-0.9937,-0.0229,-0.1829,0.0000,-0.5488
1595878674,0.0196,-0.9934,-0.0253,-0.2439,0.0000,1.5244
1595878674,0.0168,-0.9905,-0.0224,-0.3049,-0.1220,2.7439
1595878674,0.0184,-0.9908,-0.0167,-0.2439,-0.0610,2.3171
1595878674,0.0193,-0.9917,-0.0186,-0.2439,0.0000,0.5488
1595878674,0.0244,-0.9927,-0.0258,-0.2439,0.0000,-1.4024
1595878674,0.0309,-0.9941,-0.0240,-0.1829,0.1220,-2.6220
1595878674,0.0328,-0.9958,-0.0232,-0.3049,0.0610,-2.6220
1595878674,0.0296,-0.9913,-0.0269,-0.3049,-0.0610,-1.0366
1595878674,0.0261,-0.9930,-0.0234,-0.2439,0.0000,0.8537
1595878674,0.0215,-0.9947,-0.0176,-0.3659,-0.1220,1.8902
1595878674,0.0192,-0.9892,-0.0221,-0.3049,-0.1829,2.1341
1595878674,0.0208,-0.9894,-0.0240,-0.2439,-0.1220,1.4634
1595878674,0.0231,-0.9905,-0.0207,-0.3659,-0.0610,-0.1829
1595878674,0.0227,-0.9945,-0.0214,-0.3049,0.1220,-1.6463
1595878674,0.0303,-0.9932,-0.0219,-0.3659,0.1220,-2.2561
1595878674,0.0293,-0.9946,-0.0227,-0.1220,0.1220,-1.4024
1595878674,0.0256,-0.9948,-0.0208,-0.2439,0.0000,0.3659
1595878674,0.0234,-0.9918,-0.0245,-0.2439,-0.0610,1.2805
1595878674,0.0225,-0.9904,-0.0276,-0.1829,-0.1220,1.4634
1595878674,0.0232,-0.9922,-0.0245,-0.2439,0.0000,0.5488
1595878674,0.0269,-0.9927,-0.0192,-0.2439,0.0610,-0.6098
1595878674,0.0263,-0.9941,-0.0225,-0.2439,0.1220,-1.1585
1595878674,0.0274,-0.9930,-0.0234,-0.1829,0.1829,-0.9146
1595878674,0.0275,-0.9924,-0.0206,-0.1829,0.0610,-0.3659
1595878674,0.0253,-0.9932,-0.0245,-0.2439,-0.0610,0.2439
1595878674,0.0237,-0.9930,-0.0280,-0.2439,0.0000,0.7927
1595878674,0.0226,-0.9933,-0.0228,-0.2439,-0.0610,0.7317
1595878674,0.0213,-0.9916,-0.0223,-0.2439,0.0000,0.1829
1595878674,0.0247,-0.9919,-0.0217,-0.2439,0.0000,-0.2439
1595878674,0.0267,-0.9933,-0.0270,-0.2439,0.0000,-0.7317
1595878674,0.0266,-0.9940,-0.0251,-0.1829,0.0610,-0.9146
1595878674,0.0264,-0.9929,-0.0236,-0.1829,0.0000,-0.4878
1595878674,0.0258,-0.9925,-0.0231,-0.2439,0.0000,0.2439
1595878674,0.0233,-0.9916,-0.0204,-0.2439,0.0000,0.6707
1595878674,0.0225,-0.9918,-0.0189,-0.3049,0.0000,0.4878
1595878674,0.0206,-0.9922,-0.0222,-0.2439,-0.0610,0.1220
1595878674,0.0233,-0.9915,-0.0243,-0.1829,-0.0610,-0.1829
1595878674,0.0255,-0.9944,-0.0236,-0.2439,0.0610,-0.3659
1595878674,0.0261,-0.9940,-0.0242,-0.1829,0.0000,-0.4268
1595878674,0.0267,-0.9931,-0.0237,-0.2439,0.0000,-0.2439
1595878674,0.0266,-0.9930,-0.0225,-0.3049,0.0000,-0.3049
1595878674,0.0261,-0.9934,-0.0214,-0.2439,0.0000,-0.3659
1595878674,0.0265,-0.9941,-0.0251,-0.1829,0.0610,0.0000
1595878674,0.0228,-0.9914,-0.0229,-0.2439,0.0000,0.4268
1595878674,0.0223,-0.9929,-0.0193,-0.3049,0.0000,0.6707
1595878674,0.0231,-0.9929,-0.0189,-0.2439,0.0610,0.5488
1595878674,0.0233,-0.9919,-0.0219,-0.2439,0.0000,0.1829
1595878674,0.0260,-0.9952,-0.0237,-0.3049,-0.0610,-0.3659
1595878674,0.0263,-0.9948,-0.0263,-0.3049,0.0000,-0.7927
1595878674,0.0262,-0.9923,-0.0245,-0.2439,0.0610,-0.7317
1595878674,0.0272,-0.9926,-0.0223,-0.2439,0.0000,-0.3659
1595878674,0.0265,-0.9927,-0.0221,-0.2439,0.0000,-0.1220
1595878674,0.0244,-0.9933,-0.0209,-0.2439,0.0000,0.1220
1595878674,0.0236,-0.9908,-0.0245,-0.3049,-0.0610,0.4878
1595878674,-0.2385,-0.4134,0.1309,-0.2439,-0.0610,0.4268
1595878674,0.5562,-1.1302,-0.0626,20.6707,-1.4634,3.5976
1595878674,-0.5568,-0.9933,-0.0875,88.1098,-19.2683,84.5732
1595878674,-0.7393,-0.8637,0.2396,-19.8780,-9.6341,118.9024
1595878674,-1.2310,-1.2828,0.3810,-9.5732,-12.3780,-59.6341
1595878674,-1.7362,-0.9606,0.2534,-1.7683,-49.3902,-138.5976
1595878675,-1.3448,-1.1301,-0.0609,-44.2683,-128.5366,-81.8902
1595878675,-0.4559,-1.1177,-0.5147,-1.8293,-227.1951,-96.6463
1595878675,0.2119,-1.3209,-0.6323,24.8780,-302.9878,-220.2439
1595878675,0.3676,-1.4898,-0.5447,39.8171,-350.1219,-342.3781
1595878675,0.1976,-1.3406,-0.5637,73.9634,-381.5244,-342.5000
1595878675,0.2624,-1.5714,-0.4700,121.2195,-393.9634,-343.5366
1595878675,0.8404,-1.5508,-0.3584,161.7073,-398.0488,-334.6342
1595878675,1.3447,-0.3955,-0.3217,204.0244,-393.7805,-253.8415
1595878675,0.9385,-1.4225,-0.2973,239.9390,-344.5732,-297.5610
1595878675,1.0458,-1.9407,-0.0271,268.7195,-251.0366,-488.2317
1595878675,0.5920,-0.3318,0.1165,328.5366,-187.8659,-430.8537
1595878675,1.0645,-0.6634,-0.0490,379.4512,-129.0244,-403.5976
1595878675,1.2259,-1.5729,0.1396,248.1098,-119.9390,-287.9268
1595878675,0.7006,-1.2742,0.2639,293.5366,-86.4024,-58.5366
1595878675,0.3795,-0.8084,0.2140,344.8171,-62.6220,161.5854
1595878675,0.2884,-1.3290,0.2051,305.7927,-102.6829,397.9878
1595878675,0.1855,-0.7019,0.2154,321.7073,-128.1098,540.3658
1595878675,0.5140,-0.4758,0.2734,339.8171,-128.1707,438.2317
1595878675,0.8291,-0.6252,0.2820,323.0488,-110.6707,203.2927
1595878675,1.1131,-1.0786,0.1331,317.6829,-62.8659,-63.7805
1595878675,1.3505,-1.5631,0.0146,317.2561,-8.3537,-246.2195
1595878675,1.5239,-1.6635,-0.0906,325.6098,23.7805,-201.8293
1595878675,0.5922,-0.7151,0.2879,354.4512,32.6220,27.5610
1595878675,-0.4926,-0.1169,0.5660,341.1585,2.6220,362.1342
1595878675,0.0352,-0.6411,0.4453,304.0244,-119.9390,819.0854
1595878675,0.7902,-1.0857,0.6153,281.3415,-241.3415,935.1219
1595878675,0.8884,-0.6072,1.0101,242.6829,-289.3903,779.5732
1595878675,0.6854,-0.4056,0.8951,216.9512,-265.0000,423.1707
1595878675,0.8969,-1.1767,0.5752,195.8537,-198.5976,-74.4512
1595878675,0.7633,-1.7291,0.3529,205.3659,-119.2683,-532.6219
1595878675,0.0405,-1.4271,0.3500,235.5488,-64.9390,-616.3415
1595878675,-0.5587,-1.1535,0.5192,275.6707,-51.7683,-422.3781
1595878675,-0.6755,-1.0222,0.6970,298.1707,-77.7439,-193.2317
1595878675,-0.4543,-0.9635,0.8140,308.2317,-143.0488,86.8902
1595878675,-0.2794,-0.7308,0.9280,307.0122,-233.3537,390.5488
1595878675,-0.0835,-0.1169,0.9168,292.4390,-329.2073,645.3049
1595878675,0.2601,0.3341,0.6383,248.5366,-423.4146,838.5366
1595878675,0.4681,0.5531,0.2919,157.1342,-499.3903,956.9512
1595878675,0.9608,-0.4284,-0.0474,34.6951,-542.2561,1025.1830
1595878675,0.8015,-0.3138,-0.0265,-123.9024,-553.2318,1068.7195
1595878675,0.6910,-1.2474,-0.1723,-177.3781,-511.8293,1048.2317
1595878675,-0.1193,-1.9999,-0.5389,-265.7927,-459.6951,1062.0732
1595878675,-1.1812,-1.5983,-0.9709,-307.5610,-414.5732,1220.2439
1595878675,-1.5121,-1.5936,-1.4576,-309.5732,-385.9756,1377.8049
1595878675,-1.7747,-1.5185,-1.6078,-318.5976,-367.0732,1372.3781
1595878675,-1.9465,-1.2569,-0.6693,-307.9878,-349.1464,1206.0975
1595878675,-0.9501,-1.9999,1.1096,-308.5976,-356.2195,1000.6708
1595878675,-1.8270,-1.1759,-0.0507,-239.6342,-315.3049,1096.9513
1595878675,-1.9239,1.2249,0.7673,106.7683,-168.7805,1188.0488
1595878675,-1.7458,1.9999,1.0913,173.4756,-239.2683,1038.8414
1595878675,-0.7503,1.9999,-0.3393,-47.6220,-347.0732,979.2073
1595878675,-0.5475,1.7922,-0.4708,-228.2317,-363.4756,783.0488
1595878675,-0.5697,1.5031,-0.4507,-302.3171,-278.7805,236.5244
1595878675,-0.2806,1.0645,-0.9144,-380.2439,-268.9634,65.4878
1595878675,-0.2020,0.5959,-1.2354,-469.9390,-273.7805,22.6220
1595878675,-0.0529,0.4358,-1.3794,-513.4147,-254.2073,-73.0488
1595878675,0.1848,0.2111,-1.5065,-547.8049,-245.1220,-92.7439
1595878675,0.3428,0.0367,-1.5546,-571.6464,-233.9025,-108.8415
1595878675,0.4374,-0.1014,-1.5881,-578.8415,-217.1342,-138.1098
1595878675,0.4668,-0.2560,-1.5942,-580.7927,-196.9512,-154.0244
1595878675,0.5682,-0.3472,-1.4977,-575.5488,-175.8537,-159.6951
1595878675,0.6962,-0.3314,-1.3566,-560.6707,-155.4878,-155.9146
1595878675,0.6683,-0.3773,-1.2723,-541.3415,-127.4390,-147.5000
1595878675,0.5104,-0.5115,-1.2614,-520.3658,-90.7927,-149.2073
1595878675,0.3118,-0.5782,-1.2610,-494.3903,-57.8049,-146.0366
1595878675,0.0972,-0.5870,-1.2045,-466.0976,-35.0610,-112.0122
1595878675,0.0057,-0.4240,-1.1199,-436.8293,-19.7561,-67.6220
1595878675,0.0452,-0.1837,-1.1041,-408.0488,-10.6707,-31.5854
1595878675,0.1581,-0.0707,-1.0894,-392.0732,-3.5366,-6.7683
1595878675,0.2671,-0.0385,-1.0749,-393.3537,5.2439,12.6220
1595878675,0.2744,-0.0151,-1.1903,-402.9878,23.3537,26.5244
1595878675,0.2178,-0.0410,-1.3096,-413.9634,49.3293,26.8902
1595878675,0.1033,-0.2286,-1.3776,-427.8659,72.5000,24.5732
1595878675,-0.1837,-0.6340,-1.3881,-443.9634,92.9878,16.2805
1595878675,-0.5599,-0.9938,-1.3308,-453.6585,106.4634,-16.1585
1595878675,-0.6453,-1.1921,-1.3256,-449.2073,90.0610,-85.5488
1595878675,-0.3505,-1.4539,-1.3431,-433.9634,38.1098,-175.9146
1595878675,0.1885,-1.6436,-1.2250,-413.4756,-21.5244,-236.8293
1595878675,0.4849,-1.8062,-1.0585,-384.2073,-52.1951,-222.0732
1595878675,0.2731,-1.9014,-0.9940,-350.8537,-33.9634,-153.4146
1595878675,-0.2939,-1.8586,-0.9907,-310.5488,14.8171,-74.0244
1595878675,-0.8108,-1.7322,-1.0140,-264.8781,55.1829,-18.2927
1595878675,-1.0549,-1.6769,-1.0399,-227.5000,59.6341,1.4634
1595878675,-0.9462,-1.7076,-1.1245,-203.9634,29.2683,-7.1341
1595878675,-0.6971,-1.8003,-1.1913,-185.7317,-17.5610,-21.5244
1595878675,-0.4091,-1.6812,-1.1028,-167.1951,-57.5610,-8.0488
1595878675,-0.1720,-1.5253,-0.9977,-144.3902,-82.1951,46.3415
1595878675,-0.1326,-1.4481,-1.0029,-125.4268,-85.3659,96.4634
1595878675,-0.1992,-1.3521,-1.0262,-112.0122,-73.1707,110.3659
1595878675,-0.1995,-1.3199,-1.0231,-103.1098,-64.2683,98.9634
1595878675,-0.1035,-1.2795,-1.0195,-98.2317,-63.9634,69.3293
1595878675,0.0118,-1.2108,-0.9665,-92.0732,-66.7073,41.2195
1595878675,0.0654,-1.1645,-0.8950,-85.1220,-64.2683,21.5854
1595878675,0.0419,-1.1373,-0.8527,-77.8659,-54.3293,5.9146
1595878675,-0.0257,-1.0833,-0.8278,-69.1463,-40.9146,-4.9390
1595878675,-0.1068,-0.9980,-0.7908,-58.1098,-28.4146,-9.0854
1595878675,-0.1867,-0.9328,-0.7774,-46.2195,-18.6585,-8.2927
1595878675,-0.2425,-0.8643,-0.7897,-35.5488,-12.3780,-6.7683
1595878675,-0.2521,-0.7635,-0.8407,-25.6098,-9.6951,-4.1463
1595878675,-0.2959,-0.6462,-0.9014,-17.5610,-8.8415,0.8537
1595878676,-0.3901,-0.4811,-0.9075,-14.8780,-8.3537,14.9390
1595878676,-0.4817,-0.4083,-0.8792,-19.6341,-10.3659,34.4512
1595878676,-0.5184,-0.4578,-0.8508,-32.3171,-15.3049,33.3537
1595878676,-0.4343,-0.5099,-0.8151,-46.5854,-25.3659,13.2317
1595878676,-0.2588,-0.5861,-0.7944,-57.0122,-38.8415,-9.8780
1595878676,-0.1490,-0.6558,-0.7872,-63.4146,-46.9512,-31.2195
1595878676,-0.1107,-0.6578,-0.7673,-65.3659,-46.4634,-34.7561
1595878676,-0.0425,-0.6908,-0.7667,-63.1098,-41.8293,-23.3537
1595878676,0.0178,-0.7276,-0.8008,-60.0000,-34.8780,-13.1098
1595878676,-0.0111,-0.6541,-0.8416,-54.4512,-25.3659,1.8293
1595878676,-0.1088,-0.5427,-0.8939,-46.4024,-13.2317,16.0366
1595878676,-0.2202,-0.4841,-0.9343,-43.0488,-2.9268,14.5732
1595878676,-0.3129,-0.4133,-0.9164,-47.6829,1.4634,5.5488
1595878676,-0.3464,-0.4086,-0.8797,-56.2195,-0.3659,-4.4512
1595878676,-0.3423,-0.4906,-0.8569,-67.3171,-4.6341,-24.6951
1595878676,-0.3057,-0.5718,-0.8209,-77.0122,-8.5976,-46.9512
1595878676,-0.2887,-0.6524,-0.7756,-81.7683,-11.2805,-59.9390
1595878676,-0.3094,-0.7245,-0.7424,-82.0122,-10.7927,-65.2439
1595878676,-0.3181,-0.7484,-0.7225,-77.5610,-8.3537,-66.8902
1595878676,-0.3268,-0.7356,-0.7115,-68.8415,-6.8293,-64.8171
1595878676,-0.3388,-0.6840,-0.7292,-58.4756,-5.3659,-57.0732
1595878676,-0.3569,-0.6320,-0.7668,-48.1098,-2.9878,-49.0854
1595878676,-0.3770,-0.5430,-0.8027,-39.4512,-0.4268,-41.5244
1595878676,-0.3990,-0.4574,-0.8292,-33.5366,0.7317,-30.2439
1595878676,-0.4366,-0.4303,-0.8419,-33.0488,0.4268,-21.5854
1595878676,-0.4620,-0.4621,-0.8351,-37.0732,-0.8537,-21.7073
1595878676,-0.4531,-0.6097,-0.7924,-42.0732,-3.8415,-31.5244
1595878676,-0.3775,-0.7546,-0.7279,-44.9390,-9.0854,-45.5488
1595878676,-0.2758,-0.8257,-0.6968,-40.0000,-15.0000,-58.7195
1595878676,-0.2206,-0.9145,-0.7050,-27.3780,-15.6098,-73.5366
1595878676,-0.2161,-0.9442,-0.7307,-11.9512,-9.2073,-82.5610
1595878676,-0.2357,-0.8401,-0.7545,6.5244,-0.3659,-72.6220
1595878676,-0.2969,-0.7468,-0.7997,24.5732,8.7195,-52.5000
1595878676,-0.4016,-0.6520,-0.8362,36.3415,19.0244,-39.2073
1595878676,-0.5267,-0.5748,-0.8731,42.6829,26.7073,-32.1341
1595878676,-0.6197,-0.5279,-0.8984,43.7805,29.1463,-37.0732
1595878676,-0.6633,-0.4557,-0.8891,40.9146,25.0000,-50.1220
1595878676,-0.6762,-0.3928,-0.8375,34.3293,15.4268,-58.5976
1595878676,-0.6624,-0.4063,-0.7819,22.8049,4.1463,-64.7561
1595878676,-0.6221,-0.4873,-0.7409,9.3902,-5.6707,-79.0854
1595878676,-0.5862,-0.5775,-0.7158,-1.8902,-13.7805,-96.0976
1595878676,-0.5680,-0.6180,-0.6932,-8.2927,-19.6341,-108.2317
1595878676,-0.5476,-0.6370,-0.6763,-10.1220,-23.6585,-114.2073
1595878676,-0.5325,-0.6731,-0.6721,-9.7561,-27.0122,-118.0488
1595878676,-0.5201,-0.7082,-0.7089,-8.3537,-28.7195,-121.0976
1595878676,-0.5555,-0.6492,-0.7521,-4.9390,-29.6951,-119.6341
1595878676,-0.5808,-0.4870,-0.7415,-0.0610,-31.4024,-103.2927
1595878676,-0.5770,-0.4207,-0.7272,0.9756,-34.8171,-82.6829
1595878676,-0.5540,-0.4149,-0.7190,-5.4268,-37.6829,-74.0244
1595878676,-0.5477,-0.4229,-0.7027,-13.7195,-39.5122,-70.7927
1595878676,-0.5524,-0.4310,-0.6868,-21.3415,-40.0610,-68.4146
1595878676,-0.5638,-0.4533,-0.6785,-26.9512,-40.3659,-70.4268
1595878676,-0.5591,-0.4624,-0.6641,-31.6463,-41.2805,-73.4756
1595878676,-0.5400,-0.4810,-0.6583,-34.5732,-43.5366,-76.0976
1595878676,-0.5381,-0.4877,-0.6558,-36.1585,-44.9390,-80.7317
1595878676,-0.5457,-0.4833,-0.6444,-36.5854,-45.4878,-83.3537
1595878676,-0.5433,-0.4966,-0.6442,-35.9146,-46.2805,-87.1341
1595878676,-0.5243,-0.5067,-0.6689,-34.9390,-47.2561,-94.3902
1595878676,-0.4710,-0.4673,-0.6968,-32.8049,-47.9268,-99.6341
1595878676,-0.3882,-0.4362,-0.7031,-30.7317,-48.0488,-97.9268
1595878676,-0.3795,-0.4528,-0.7125,-30.3659,-44.9390,-95.4878
1595878676,-0.4466,-0.4745,-0.7390,-31.5244,-37.0732,-92.8049
1595878676,-0.4616,-0.4711,-0.7897,-32.2561,-30.1220,-92.5000
1595878676,-0.3488,-0.4404,-0.8315,-32.0122,-27.9878,-95.6707
1595878676,-0.2050,-0.4742,-0.8004,-32.1951,-27.8659,-97.1951
1595878676,-0.1664,-0.5764,-0.7405,-33.7195,-22.6220,-96.4024
1595878676,-0.2134,-0.6371,-0.7209,-31.8293,-10.8537,-91.7073
1595878676,-0.2624,-0.6182,-0.7516,-22.5000,0.3659,-79.3902
1595878676,-0.2941,-0.5482,-0.7975,-8.4146,6.6463,-63.9024
1595878676,-0.2861,-0.4757,-0.8580,5.4878,9.1463,-50.2439
1595878676,-0.2720,-0.4241,-0.9523,15.7927,10.0610,-39.9390
1595878676,-0.2773,-0.3561,-1.0290,21.9512,10.7317,-29.8780
1595878676,-0.2831,-0.2884,-1.0632,25.6707,11.0366,-17.6829
1595878676,-0.2530,-0.2729,-1.0883,25.0610,11.4634,-11.5854
1595878676,-0.2393,-0.2825,-1.0984,21.2195,12.6829,-15.6098
1595878676,-0.2859,-0.2941,-1.0779,16.3415,15.4878,-23.6585
1595878676,-0.3350,-0.3032,-1.0453,10.1220,18.5976,-31.6463
1595878676,-0.3498,-0.3250,-1.0096,3.3537,18.7195,-42.9268
1595878676,-0.3773,-0.4080,-0.9719,-3.7195,16.4024,-60.9756
1595878676,-0.4043,-0.5359,-0.9689,-9.6951,13.4756,-84.6341
1595878676,-0.3957,-0.6663,-0.9915,-12.0122,8.4756,-107.5610
1595878676,-0.3242,-0.7263,-0.9969,-9.4512,-0.1220,-121.0976
1595878676,-0.2380,-0.7094,-0.9847,-3.2927,-11.0976,-114.7561
1595878676,-0.1742,-0.6769,-0.9748,5.0000,-19.3293,-99.9390
1595878676,-0.1371,-0.6669,-0.9641,12.5000,-21.5854,-89.8781
1595878676,-0.1290,-0.6597,-0.9464,19.2683,-20.0610,-83.4756
1595878676,-0.1171,-0.6223,-0.9349,25.6707,-17.8049,-73.9634
1595878676,-0.0942,-0.6025,-0.9186,31.7683,-16.5854,-66.2195
1595878676,-0.0736,-0.5778,-0.8889,37.0732,-16.2805,-65.7317
1595878676,-0.0735,-0.5329,-0.8442,42.5000,-17.0732,-66.5854
1595878676,-0.0711,-0.5210,-0.7986,46.8293,-18.7805,-67.8049
1595878676,-0.0416,-0.5115,-0.7662,49.7561,-21.2805,-74.6951
1595878676,0.0500,-0.4868,-0.7178,55.0610,-23.8415,-88.2927
1595878676,0.1560,-0.4175,-0.7324,64.0244,-25.0610,-108.6585
1595878676,0.2543,-0.3707,-0.7369,73.5366,-21.8293,-131.8902
1595878676,0.3250,-0.3805,-0.7270,79.8781,-12.0732,-154.8171
1595878676,0.2966,-0.3636,-0.7304,83.0488,2.5610,-168.9025
1595878676,0.1978,-0.4011,-0.7509,83.4756,16.6463,-159.5122
1595878676,0.1505,-0.3771,-0.7867,80.6707,22.9878,-139.2683
1595878676,0.1205,-0.3487,-0.8112,80.4878,22.5610,-122.9268
